# wavelength flux
       3096.7189      0.18848494
       3097.7979     0.029211130
       3098.8769      0.41795357
       3099.9559      0.24748238
       3101.0348      0.25657250
       3102.1138      0.38802967
       3103.1928      0.38276153
       3104.2718      0.33228182
       3105.3508      0.41782316
       3106.4297      0.51410891
       3107.5087      0.58030337
       3108.5877      0.62667451
       3109.6667      0.67493029
       3110.7457      0.50982714
       3111.8246      0.46490149
       3112.9036      0.37775523
       3113.9826      0.26835369
       3115.0616     0.015417125
       3116.1406    0.0086258292
       3117.2195     -0.23782667
       3118.2985    -0.043233367
       3119.3775    -0.060523091
       3120.4565     -0.21441077
       3121.5355     -0.29118825
       3122.6144      0.16425565
       3123.6934      0.20928071
       3124.7724     -0.30192849
       3125.8514     -0.20785860
       3126.9304     -0.13009603
       3128.0093     0.075297798
       3129.0883    0.0049288161
       3130.1673      0.31119294
       3131.2463      0.33453799
       3132.3253     0.086628984
       3133.4042  -0.00040463908
       3134.4832    -0.072272546
       3135.5622     0.099097673
       3136.6412      0.23615923
       3137.7201      0.32859815
       3138.7991    -0.065195720
       3139.8781   -0.0097803078
       3140.9571    -0.071119209
       3142.0361     0.074226107
       3143.1150      0.14521389
       3144.1940     0.019306686
       3145.2730     0.080917811
       3146.3520     0.010862919
       3147.4310      0.18173115
       3148.5099     0.087454540
       3149.5889     0.016250656
       3150.6679     -0.20958167
       3151.7469      0.25662020
       3152.8259     0.096059550
       3153.9048     0.031702133
       3154.9838      0.26149712
       3156.0628      0.19763809
       3157.1418      0.25018237
       3158.2208      0.35795186
       3159.2997      0.20716102
       3160.3787      0.22910399
       3161.4577      0.21555978
       3162.5367      0.26120662
       3163.6157      0.13698799
       3164.6946      0.10149384
       3165.7736      0.20217152
       3166.8526     0.082620829
       3167.9316      0.10336389
       3169.0106      0.25388294
       3170.0895    -0.021306577
       3171.1685     0.079386379
       3172.2475    0.0085310884
       3173.3265      0.13597843
       3174.4055      0.17933113
       3175.4844     0.069026070
       3176.5634      0.16729266
       3177.6424      0.40602649
       3178.7214      0.23007848
       3179.8003      0.34639574
       3180.8793      0.42187945
       3181.9583      0.51953037
       3183.0373      0.40204116
       3184.1163      0.39918861
       3185.1952      0.59422168
       3186.2742      0.47981865
       3187.3532      0.42468844
       3188.4322      0.39230990
       3189.5112      0.32079806
       3190.5901      0.35020402
       3191.6691      0.33318183
       3192.7481      0.34413906
       3193.8271      0.52060340
       3194.9061      0.51631616
       3195.9850      0.29088374
       3197.0640      0.33525756
       3198.1430      0.12581014
       3199.2220     0.076078285
       3200.3010      0.15486663
       3201.3799      0.16150576
       3202.4589      0.10678461
       3203.5379      0.12735309
       3204.6169     0.016371852
       3205.6959    -0.099530055
       3206.7748   -0.0023262835
       3207.8538     0.040435153
       3208.9328      0.17951335
       3210.0118    -0.072813301
       3211.0908   -0.0022532600
       3212.1697     0.027281717
       3213.2487     -0.11172845
       3214.3277      0.10382287
       3215.4067     0.037818310
       3216.4857      0.23576780
       3217.5646      0.15469885
       3218.6436     0.060740140
       3219.7226      0.16321506
       3220.8016     0.084524232
       3221.8805    -0.014544948
       3222.9595      0.15184728
       3224.0385      0.19647111
       3225.1175      0.19820101
       3226.1965      0.11700753
       3227.2754     0.075989879
       3228.3544      0.14270331
       3229.4334      0.18503890
       3230.5124      0.23319185
       3231.5914      0.31855787
       3232.6703      0.31888868
       3233.7493      0.31291934
       3234.8283      0.42167311
       3235.9073      0.23027286
       3236.9863      0.38751094
       3238.0652      0.37789191
       3239.1442      0.44782578
       3240.2232      0.30755676
       3241.3022      0.43246832
       3242.3812      0.37845763
       3243.4601      0.25800626
       3244.5391      0.43873165
       3245.6181      0.41373071
       3246.6971      0.41607428
       3247.7761      0.35341902
       3248.8550      0.34340144
       3249.9340      0.35532608
       3251.0130      0.34092075
       3252.0920      0.42592359
       3253.1710      0.38794698
       3254.2499      0.32450052
       3255.3289      0.22168437
       3256.4079      0.47676234
       3257.4869      0.35806307
       3258.5659      0.44780641
       3259.6448      0.41983725
       3260.7238      0.35523371
       3261.8028      0.51573617
       3262.8818      0.49549490
       3263.9607      0.58029897
       3265.0397      0.55748809
       3266.1187      0.60607058
       3267.1977      0.66459227
       3268.2767      0.57338849
       3269.3556      0.81260342
       3270.4346      0.90549428
       3271.5136      0.93003360
       3272.5926      0.87648655
       3273.6716      0.80740381
       3274.7505      0.91187921
       3275.8295      0.78094549
       3276.9085      0.84311301
       3277.9875      0.90079842
       3279.0665      0.65437160
       3280.1454      0.64209933
       3281.2244      0.61126343
       3282.3034      0.53304236
       3283.3824      0.49953831
       3284.4614      0.43446372
       3285.5403      0.35800320
       3286.6193      0.28626256
       3287.6983      0.29941669
       3288.7773      0.32316503
       3289.8563      0.15118133
       3290.9352      0.38923800
       3292.0142      0.25694090
       3293.0932      0.39986654
       3294.1722      0.31070411
       3295.2512      0.43683759
       3296.3301      0.42435135
       3297.4091      0.34634455
       3298.4881      0.47184027
       3299.5671      0.44163237
       3300.6461      0.61622167
       3301.7250      0.41662163
       3302.8040      0.36734703
       3303.8830      0.37298211
       3304.9620      0.38091421
       3306.0409      0.44129946
       3307.1199      0.49577972
       3308.1989      0.65702952
       3309.2779      0.37164337
       3310.3569      0.57916345
       3311.4358      0.44256789
       3312.5148      0.42558658
       3313.5938      0.41416503
       3314.6728      0.38362665
       3315.7518      0.38003623
       3316.8307      0.38455520
       3317.9097      0.49979359
       3318.9887      0.30791249
       3320.0677      0.44950776
       3321.1467      0.36441945
       3322.2256      0.31963794
       3323.3046      0.35416756
       3324.3836      0.47409270
       3325.4626      0.39791802
       3326.5416      0.41346135
       3327.6205      0.36283203
       3328.6995      0.50364439
       3329.7785      0.51501259
       3330.8575      0.55369833
       3331.9365      0.48018544
       3333.0154      0.56073339
       3334.0944      0.51047722
       3335.1734      0.45355870
       3336.2524      0.45657771
       3337.3314      0.35116723
       3338.4103      0.40297192
       3339.4893      0.37390490
       3340.5683      0.34802543
       3341.6473      0.12294434
       3342.7263      0.35971732
       3343.8052      0.34501614
       3344.8842      0.37391101
       3345.9632      0.34134766
       3347.0422      0.36664238
       3348.1211      0.43047417
       3349.2001      0.61799487
       3350.2791      0.63795990
       3351.3581      0.74538822
       3352.4371      0.73930230
       3353.5160      0.74947135
       3354.5950      0.76226892
       3355.6740      0.89599820
       3356.7530      0.80137049
       3357.8320      0.87401201
       3358.9109      0.76973654
       3359.9899      0.66896231
       3361.0689      0.62137489
       3362.1479      0.67144188
       3363.2269      0.54902734
       3364.3058      0.58699595
       3365.3848      0.51990574
       3366.4638      0.49676807
       3367.5428      0.59935857
       3368.6218      0.55436401
       3369.7007      0.47949276
       3370.7797      0.51489187
       3371.8587      0.58446509
       3372.9377      0.41991717
       3374.0167      0.54872386
       3375.0956      0.28182975
       3376.1746      0.33919646
       3377.2536      0.27275025
       3378.3326      0.37829772
       3379.4116      0.42322032
       3380.4905      0.42752649
       3381.5695      0.34498997
       3382.6485      0.46936196
       3383.7275      0.55013844
       3384.8065      0.35989019
       3385.8854      0.48397380
       3386.9644      0.49577391
       3388.0434      0.45797273
       3389.1224      0.51421039
       3390.2013      0.41176813
       3391.2803      0.44848080
       3392.3593      0.36727028
       3393.4383      0.38052923
       3394.5173      0.48168058
       3395.5962      0.46985610
       3396.6752      0.52795895
       3397.7542      0.45160698
       3398.8332      0.37846599
       3399.9122      0.39103152
       3400.9911      0.35708931
       3402.0701      0.40729181
       3403.1491      0.35625975
       3404.2281      0.32946610
       3405.3071      0.41976745
       3406.3860      0.25332133
       3407.4650      0.21784935
       3408.5440      0.31761237
       3409.6230      0.35150998
       3410.7020      0.40908825
       3411.7809      0.45397304
       3412.8599      0.41149087
       3413.9389      0.34757572
       3415.0179      0.49006649
       3416.0969      0.50446806
       3417.1758      0.61205832
       3418.2548      0.43494197
       3419.3338      0.65045451
       3420.4128      0.59473164
       3421.4918      0.59841318
       3422.5707      0.57445298
       3423.6497      0.49549996
       3424.7287      0.61859680
       3425.8077      0.41680694
       3426.8867      0.46150883
       3427.9656      0.32230370
       3429.0446      0.31220212
       3430.1236      0.30633572
       3431.2026      0.29825335
       3432.2815      0.33987210
       3433.3605      0.44368900
       3434.4395      0.47636935
       3435.5185      0.56187111
       3436.5975      0.61780931
       3437.6764      0.66712052
       3438.7554      0.63866137
       3439.8344      0.73542562
       3440.9134      0.76565189
       3441.9924      0.66939037
       3443.0713      0.63150714
       3444.1503      0.61109328
       3445.2293      0.68006276
       3446.3083      0.66005644
       3447.3873      0.59502638
       3448.4662      0.58641192
       3449.5452      0.67187746
       3450.6242      0.53418601
       3451.7032      0.67443755
       3452.7822      0.66521893
       3453.8611      0.61658098
       3454.9401      0.59483851
       3456.0191      0.64966754
       3457.0981      0.62473349
       3458.1771      0.57844216
       3459.2560      0.55759894
       3460.3350      0.56016060
       3461.4140      0.52519939
       3462.4930      0.43626676
       3463.5720      0.46703314
       3464.6509      0.32796054
       3465.7299      0.48496502
       3466.8089      0.56447883
       3467.8879      0.68049800
       3468.9669      0.70983949
       3470.0458      0.67248342
       3471.1248      0.80691183
       3472.2038      0.70008340
       3473.2828      0.70434474
       3474.3617      0.53027639
       3475.4407      0.77344891
       3476.5197      0.60532316
       3477.5987      0.57612552
       3478.6777      0.51411646
       3479.7566      0.41069120
       3480.8356      0.37831519
       3481.9146      0.29275185
       3482.9936      0.44454229
       3484.0726      0.42652298
       3485.1515      0.35336636
       3486.2305      0.34070784
       3487.3095      0.37217451
       3488.3885      0.45693087
       3489.4675      0.43008036
       3490.5464      0.51576434
       3491.6254      0.55912651
       3492.7044      0.53529433
       3493.7834      0.65157572
       3494.8624      0.60161360
       3495.9413      0.68056285
       3497.0203      0.65594547
       3498.0993      0.64081405
       3499.1783      0.66297518
       3500.2573      0.62298577
       3501.3362      0.59184155
       3502.4152      0.57690700
       3503.4942      0.57438467
       3504.5732      0.66635868
       3505.6522      0.61203044
       3506.7311      0.60326670
       3507.8101      0.56022521
       3508.8891      0.66378202
       3509.9681      0.63570879
       3511.0471      0.58815599
       3512.1260      0.60030854
       3513.2050      0.51416369
       3514.2840      0.50656469
       3515.3630      0.49928127
       3516.4419      0.46285484
       3517.5209      0.52196743
       3518.5999      0.58061291
       3519.6789      0.55352910
       3520.7579      0.54278470
       3521.8368      0.56608694
       3522.9158      0.63215302
       3523.9948      0.70981797
       3525.0738      0.66690394
       3526.1528      0.60519241
       3527.2317      0.60148722
       3528.3107      0.71553986
       3529.3897      0.69599018
       3530.4687      0.80475644
       3531.5477      0.76155118
       3532.6266      0.91206749
       3533.7056      0.94971681
       3534.7846       1.0431650
       3535.8636      0.94290897
       3536.9426       1.0654650
       3538.0215       1.0875199
       3539.1005      0.96704331
       3540.1795       1.0173180
       3541.2585      0.96975970
       3542.3375      0.99837901
       3543.4164      0.87063694
       3544.4954      0.85351586
       3545.5744      0.80658790
       3546.6534      0.88786084
       3547.7324      0.81165363
       3548.8113      0.89486649
       3549.8903      0.78560382
       3550.9693      0.88494742
       3552.0483      0.78733258
       3553.1273      0.74753087
       3554.2062      0.76815381
       3555.2852      0.69550663
       3556.3642      0.68601547
       3557.4432      0.59083673
       3558.5221      0.59600709
       3559.6011      0.44991764
       3560.6801      0.39832466
       3561.7591      0.35735195
       3562.8381      0.36641054
       3563.9170      0.39900393
       3564.9960      0.40915305
       3566.0750      0.46533360
       3567.1540      0.35220264
       3568.2330      0.39318663
       3569.3119      0.44340902
       3570.3909      0.39007989
       3571.4699      0.36657930
       3572.5489      0.28055720
       3573.6279      0.21560022
       3574.7068      0.27328306
       3575.7858      0.25330007
       3576.8648      0.29607379
       3577.9438      0.22785741
       3579.0228      0.31375741
       3580.1017      0.27920540
       3581.1807      0.40279432
       3582.2597      0.38317827
       3583.3387      0.42478579
       3584.4177      0.45855898
       3585.4966      0.51322489
       3586.5756      0.52122609
       3587.6546      0.55773203
       3588.7336      0.55382075
       3589.8126      0.52966860
       3590.8915      0.51649887
       3591.9705      0.47522390
       3593.0495      0.57840142
       3594.1285      0.55165435
       3595.2075      0.55835254
       3596.2864      0.48998147
       3597.3654      0.46202867
       3598.4444      0.50433198
       3599.5234      0.48169034
       3600.6023      0.39374979
       3601.6813      0.46798741
       3602.7603      0.40369138
       3603.8393      0.42194267
       3604.9183      0.44062731
       3605.9972      0.49562524
       3607.0762      0.59110611
       3608.1552      0.56760933
       3609.2342      0.58125998
       3610.3132      0.56871825
       3611.3921      0.64740539
       3612.4711      0.59915381
       3613.5501      0.63258553
       3614.6291      0.64531296
       3615.7081      0.70373404
       3616.7870      0.68007763
       3617.8660      0.67992047
       3618.9450      0.69956943
       3620.0240      0.72117131
       3621.1030      0.85510359
       3622.1819      0.73385505
       3623.2609      0.69688740
       3624.3399      0.65996894
       3625.4189      0.67055291
       3626.4979      0.60273255
       3627.5768      0.65477527
       3628.6558      0.66929967
       3629.7348      0.72254648
       3630.8138      0.78383256
       3631.8928      0.73068049
       3632.9717      0.70694255
       3634.0507      0.74299857
       3635.1297      0.73594743
       3636.2087      0.74851843
       3637.2877      0.70590575
       3638.3666      0.67973270
       3639.4456      0.66400401
       3640.5246      0.62887742
       3641.6036      0.56725081
       3642.6825      0.48774075
       3643.7615      0.59761695
       3644.8405      0.61067851
       3645.9195      0.68414048
       3646.9985      0.65219516
       3648.0774      0.71559245
       3649.1564      0.72623785
       3650.2354      0.76106962
       3651.3144      0.84264287
       3652.3934      0.91263862
       3653.4723      0.91884837
       3654.5513      0.83226930
       3655.6303      0.79797684
       3656.7093      0.81191702
       3657.7883      0.88870256
       3658.8672      0.84187299
       3659.9462      0.82598771
       3661.0252      0.79687337
       3662.1042      0.87812514
       3663.1832      0.73804317
       3664.2621      0.70664986
       3665.3411      0.66349420
       3666.4201      0.67943091
       3667.4991      0.64520616
       3668.5781      0.79841090
       3669.6570      0.61769562
       3670.7360      0.59714431
       3671.8150      0.63885420
       3672.8940      0.64666861
       3673.9730      0.55270586
       3675.0519      0.50197187
       3676.1309      0.48623796
       3677.2099      0.45065957
       3678.2889      0.45778643
       3679.3679      0.50557992
       3680.4468      0.56076409
       3681.5258      0.59713145
       3682.6048      0.50859447
       3683.6838      0.57740417
       3684.7627      0.52944212
       3685.8417      0.56405338
       3686.9207      0.61175620
       3687.9997      0.62056547
       3689.0787      0.64559773
       3690.1576      0.76396514
       3691.2366      0.74850383
       3692.3156      0.84797661
       3693.3946      0.83565966
       3694.4736      0.89507605
       3695.5525      0.97160921
       3696.6315      0.94667939
       3697.7105      0.95153808
       3698.7895      0.91668879
       3699.8685      0.87961259
       3700.9474      0.82505452
       3702.0264      0.80695168
       3703.1054      0.74543847
       3704.1844      0.67826830
       3705.2634      0.57415602
       3706.3423      0.70310484
       3707.4213      0.79747764
       3708.5003      0.88245721
       3709.5793      0.83732534
       3710.6583      0.92512996
       3711.7372      0.85116681
       3712.8162      0.85592682
       3713.8952      0.73176769
       3714.9742      0.67828763
       3716.0532      0.59038933
       3717.1321      0.51389997
       3718.2111      0.46618842
       3719.2901      0.50637888
       3720.3691      0.57460282
       3721.4481      0.62786263
       3722.5270      0.60510127
       3723.6060      0.65068883
       3724.6850      0.73426666
       3725.7640      0.81085042
       3726.8429      0.64776853
       3727.9219      0.65109916
       3729.0009      0.67605579
       3730.0799      0.61029840
       3731.1589      0.52694845
       3732.2378      0.52725410
       3733.3168      0.49607466
       3734.3958      0.66178494
       3735.4748      0.66252588
       3736.5538      0.71293542
       3737.6327      0.74824543
       3738.7117      0.74695496
       3739.7907      0.79637931
       3740.8697      0.76815069
       3741.9487      0.68098497
       3743.0276      0.65410075
       3744.1066      0.55668461
       3745.1856      0.43846980
       3746.2646      0.50903241
       3747.3436      0.53748840
       3748.4225      0.48725113
       3749.5015      0.66099985
       3750.5805      0.67527745
       3751.6595      0.83142408
       3752.7385      0.74754498
       3753.8174      0.76522666
       3754.8964      0.75603897
       3755.9754      0.69313502
       3757.0544      0.68015802
       3758.1334      0.61325524
       3759.2123      0.63644452
       3760.2913      0.66935771
       3761.3703      0.68929366
       3762.4493      0.57679261
       3763.5283      0.53063917
       3764.6072      0.61587740
       3765.6862      0.54178022
       3766.7652      0.66891972
       3767.8442      0.61997815
       3768.9231      0.78126820
       3770.0021      0.77628081
       3771.0811      0.83663161
       3772.1601      0.87173080
       3773.2391      0.90242893
       3774.3180      0.83194024
       3775.3970      0.87856463
       3776.4760      0.94546859
       3777.5550      0.82177847
       3778.6340      0.86828187
       3779.7129      0.76572080
       3780.7919      0.93057496
       3781.8709      0.88060043
       3782.9499      0.82422843
       3784.0289      0.81718077
       3785.1078      0.74306183
       3786.1868      0.70518052
       3787.2658      0.74832608
       3788.3448      0.73349720
       3789.4238      0.84475972
       3790.5027      0.78930910
       3791.5817      0.77649295
       3792.6607      0.74796324
       3793.7397      0.76259294
       3794.8187      0.71141089
       3795.8976      0.68644340
       3796.9766      0.68632518
       3798.0556      0.65825203
       3799.1346      0.71872271
       3800.2136      0.81460708
       3801.2925      0.88324171
       3802.3715      0.89914539
       3803.4505      0.93283378
       3804.5295      0.89818213
       3805.6085      0.87398517
       3806.6874      0.89654735
       3807.7664      0.91475741
       3808.8454      0.88015364
       3809.9244      0.85347780
       3811.0033      0.84777397
       3812.0823      0.81055844
       3813.1613      0.73195433
       3814.2403      0.73352510
       3815.3193      0.68397825
       3816.3982      0.72620269
       3817.4772      0.64970872
       3818.5562      0.63329233
       3819.6352      0.66776340
       3820.7142      0.66052405
       3821.7931      0.57825707
       3822.8721      0.56157276
       3823.9511      0.46061860
       3825.0301      0.53362320
       3826.1091      0.49887521
       3827.1880      0.53436598
       3828.2670      0.58854660
       3829.3460      0.54398299
       3830.4250      0.52276094
       3831.5040      0.57667427
       3832.5829      0.58998181
       3833.6619      0.55897644
       3834.7409      0.58409067
       3835.8199      0.59074534
       3836.8989      0.54382403
       3837.9778      0.48032851
       3839.0568      0.55369097
       3840.1358      0.51617362
       3841.2148      0.56662757
       3842.2938      0.67627931
       3843.3727      0.70796154
       3844.4517      0.73901538
       3845.5307      0.76573941
       3846.6097      0.75497076
       3847.6887      0.80109093
       3848.7676      0.72414132
       3849.8466      0.87485709
       3850.9256      0.77025462
       3852.0046      0.78769071
       3853.0835      0.75939846
       3854.1625      0.68580313
       3855.2415      0.69030285
       3856.3205      0.59285367
       3857.3995      0.54903730
       3858.4784      0.50911232
       3859.5574      0.55009258
       3860.6364      0.61205131
       3861.7154      0.65935969
       3862.7944      0.63184918
       3863.8733      0.75567686
       3864.9523      0.87562058
       3866.0313      0.89182710
       3867.1103      0.91399688
       3868.1893      0.80108884
       3869.2682      0.85444325
       3870.3472      0.80217043
       3871.4262      0.72817025
       3872.5052      0.73238610
       3873.5842      0.68645114
       3874.6631      0.68687126
       3875.7421      0.66675079
       3876.8211      0.64782379
       3877.9001      0.65701625
       3878.9791      0.63967573
       3880.0580      0.64725637
       3881.1370      0.62922601
       3882.2160      0.69823028
       3883.2950      0.70634244
       3884.3740      0.62574701
       3885.4529      0.56192285
       3886.5319      0.50340832
       3887.6109      0.51299854
       3888.6899      0.47767909
       3889.7689      0.55254353
       3890.8478      0.60267698
       3891.9268      0.64399097
       3893.0058      0.66024580
       3894.0848      0.70927314
       3895.1637      0.71733223
       3896.2427      0.77757136
       3897.3217      0.73146001
       3898.4007      0.68209109
       3899.4797      0.72247296
       3900.5586      0.74147969
       3901.6376      0.72969743
       3902.7166      0.72935365
       3903.7956      0.77920343
       3904.8746      0.77380512
       3905.9535      0.79285852
       3907.0325      0.84620401
       3908.1115      0.85454513
       3909.1905      0.95149768
       3910.2695      0.88450057
       3911.3484      0.92195654
       3912.4274      0.94405948
       3913.5064      0.91966287
       3914.5854      0.86488839
       3915.6644      0.88564174
       3916.7433      0.83030630
       3917.8223      0.79106088
       3918.9013      0.75536063
       3919.9803      0.70423012
       3921.0593      0.65114710
       3922.1382      0.62590259
       3923.2172      0.56844565
       3924.2962      0.53589821
       3925.3752      0.51765224
       3926.4542      0.44885213
       3927.5331      0.45080631
       3928.6121      0.34893014
       3929.6911      0.30550103
       3930.7701      0.22668856
       3931.8491      0.19385400
       3932.9280      0.12836256
       3934.0070      0.19367904
       3935.0860      0.16591303
       3936.1650      0.17254508
       3937.2439      0.26682365
       3938.3229      0.36247129
       3939.4019      0.37749218
       3940.4809      0.46746419
       3941.5599      0.44107857
       3942.6388      0.52565388
       3943.7178      0.60262557
       3944.7968      0.60780624
       3945.8758      0.67028320
       3946.9548      0.67349913
       3948.0337      0.69021178
       3949.1127      0.73839287
       3950.1917      0.72834098
       3951.2707      0.76719882
       3952.3497      0.78335473
       3953.4286      0.79188434
       3954.5076      0.80947426
       3955.5866      0.74686017
       3956.6656      0.72105600
       3957.7446      0.71321928
       3958.8235      0.67108307
       3959.9025      0.64761388
       3960.9815      0.62652855
       3962.0605      0.56620481
       3963.1395      0.46551542
       3964.2184      0.42658110
       3965.2974      0.28214590
       3966.3764      0.23289964
       3967.4554      0.22254234
       3968.5344      0.17735598
       3969.6133      0.20160180
       3970.6923      0.18771005
       3971.7713      0.29001094
       3972.8503      0.28477048
       3973.9293      0.40155138
       3975.0082      0.48799563
       3976.0872      0.58276760
       3977.1662      0.61467037
       3978.2452      0.69106245
       3979.3241      0.78229728
       3980.4031      0.74590284
       3981.4821      0.80583470
       3982.5611      0.84498831
       3983.6401      0.82520890
       3984.7190      0.84857769
       3985.7980      0.86274022
       3986.8770      0.87460254
       3987.9560      0.90579733
       3989.0350      0.90160581
       3990.1139      0.90421803
       3991.1929      0.97410493
       3992.2719       1.0372097
       3993.3509       1.0302802
       3994.4299      0.93825418
       3995.5088      0.96238434
       3996.5878      0.97472883
       3997.6668      0.93527113
       3998.7458      0.95988461
       3999.8248      0.89807187
       4000.9037      0.93805848
       4001.9827      0.98889377
       4003.0617      0.95819343
       4004.1407      0.95734898
       4005.2197      0.94267946
       4006.2986      0.97112747
       4007.3776       1.0115834
       4008.4566      0.99581006
       4009.5356       1.0616495
       4010.6146       1.0886836
       4011.6935       1.1584948
       4012.7725       1.0825101
       4013.8515       1.1877395
       4014.9305       1.1426683
       4016.0095       1.0952207
       4017.0884       1.1176202
       4018.1674       1.1269362
       4019.2464       1.0938820
       4020.3254       1.1360617
       4021.4043       1.0936888
       4022.4833       1.1102008
       4023.5623       1.0632421
       4024.6413       1.1370139
       4025.7203       1.1401386
       4026.7992       1.1204491
       4027.8782       1.1990307
       4028.9572       1.1747123
       4030.0362       1.1294410
       4031.1152       1.0494677
       4032.1941       1.0423874
       4033.2731       1.0554620
       4034.3521       1.1057823
       4035.4311       1.0689149
       4036.5101       1.1584116
       4037.5890       1.1627317
       4038.6680       1.2802548
       4039.7470       1.2655392
       4040.8260       1.3473397
       4041.9050       1.3176676
       4042.9839       1.2165967
       4044.0629       1.0579540
       4045.1419       1.0132376
       4046.2209       1.1069609
       4047.2999       1.0209282
       4048.3788       1.1131636
       4049.4578       1.1079946
       4050.5368       1.2683046
       4051.6158       1.2872523
       4052.6948       1.2426566
       4053.7737       1.2681562
       4054.8527       1.2785869
       4055.9317       1.2510522
       4057.0107       1.2580962
       4058.0897       1.1952319
       4059.1686       1.2560201
       4060.2476       1.1411434
       4061.3266       1.1833924
       4062.4056       1.1238176
       4063.4845       1.0750087
       4064.5635       1.0992283
       4065.6425       1.0921831
       4066.7215       1.2151837
       4067.8005       1.2480693
       4068.8794       1.2707165
       4069.9584       1.1912741
       4071.0374       1.2027729
       4072.1164       1.1616584
       4073.1954       1.1541467
       4074.2743       1.2393176
       4075.3533       1.1566799
       4076.4323       1.1392647
       4077.5113       1.2389100
       4078.5903       1.2034491
       4079.6692       1.1902414
       4080.7482       1.2751137
       4081.8272       1.2745139
       4082.9062       1.2527443
       4083.9852       1.3299508
       4085.0641       1.2409512
       4086.1431       1.2564128
       4087.2221       1.3324641
       4088.3011       1.2879315
       4089.3801       1.3058886
       4090.4590       1.3230187
       4091.5380       1.4249318
       4092.6170       1.2572159
       4093.6960       1.3229663
       4094.7750       1.2349080
       4095.8539       1.2590135
       4096.9329       1.1681264
       4098.0119       1.1476387
       4099.0909       1.1021658
       4100.1699       1.0018757
       4101.2488      0.97825939
       4102.3278      0.97247287
       4103.4068       1.0323100
       4104.4858      0.98034464
       4105.5648       1.0520650
       4106.6437       1.1268891
       4107.7227       1.0905203
       4108.8017       1.1651726
       4109.8807       1.1896637
       4110.9596       1.1315135
       4112.0386       1.1945134
       4113.1176       1.2131156
       4114.1966       1.2800894
       4115.2756       1.2234345
       4116.3545       1.3434661
       4117.4335       1.2882825
       4118.5125       1.2793721
       4119.5915       1.2112994
       4120.6705       1.2976566
       4121.7494       1.3381148
       4122.8284       1.3058477
       4123.9074       1.3168515
       4124.9864       1.3241432
       4126.0654       1.3215546
       4127.1443       1.3152585
       4128.2233       1.3796638
       4129.3023       1.3564023
       4130.3813       1.3274745
       4131.4603       1.2757816
       4132.5392       1.2741932
       4133.6182       1.3534258
       4134.6972       1.3519056
       4135.7762       1.3065223
       4136.8552       1.3939344
       4137.9341       1.4272511
       4139.0131       1.4441788
       4140.0921       1.4202533
       4141.1711       1.3215281
       4142.2501       1.2557109
       4143.3290       1.2084244
       4144.4080       1.1798286
       4145.4870       1.2525354
       4146.5660       1.1989789
       4147.6450       1.2095990
       4148.7239       1.2693483
       4149.8029       1.3481250
       4150.8819       1.3157821
       4151.9609       1.3338120
       4153.0398       1.3123307
       4154.1188       1.3870264
       4155.1978       1.3048421
       4156.2768       1.3038683
       4157.3558       1.3741425
       4158.4347       1.3319673
       4159.5137       1.4302597
       4160.5927       1.4927572
       4161.6717       1.4566316
       4162.7507       1.4999337
       4163.8296       1.5451404
       4164.9086       1.4197109
       4165.9876       1.4641946
       4167.0666       1.5012844
       4168.1456       1.5482488
       4169.2245       1.5075382
       4170.3035       1.4611510
       4171.3825       1.4610654
       4172.4615       1.3618423
       4173.5405       1.3916622
       4174.6194       1.3519981
       4175.6984       1.4243026
       4176.7774       1.3976208
       4177.8564       1.3978009
       4178.9354       1.4869341
       4180.0143       1.4440404
       4181.0933       1.4042828
       4182.1723       1.3796093
       4183.2513       1.4057178
       4184.3303       1.3694708
       4185.4092       1.3408981
       4186.4882       1.2587300
       4187.5672       1.3513654
       4188.6462       1.2543836
       4189.7252       1.3303772
       4190.8041       1.3629746
       4191.8831       1.4058563
       4192.9621       1.4320913
       4194.0411       1.3914275
       4195.1200       1.4069506
       4196.1990       1.3795735
       4197.2780       1.3153335
       4198.3570       1.2344766
       4199.4360       1.2728855
       4200.5149       1.2138169
       4201.5939       1.2349256
       4202.6729       1.2511713
       4203.7519       1.3137753
       4204.8309       1.2674675
       4205.9098       1.3634195
       4206.9888       1.4009805
       4208.0678       1.4576579
       4209.1468       1.5060599
       4210.2258       1.4727956
       4211.3047       1.4122601
       4212.3837       1.4199224
       4213.4627       1.4142467
       4214.5417       1.4078552
       4215.6207       1.3618880
       4216.6996       1.3663178
       4217.7786       1.4044040
       4218.8576       1.4134420
       4219.9366       1.3766683
       4221.0156       1.3704762
       4222.0945       1.2683719
       4223.1735       1.1240444
       4224.2525       1.1239890
       4225.3315      0.97221777
       4226.4105      0.94607480
       4227.4894       1.0739281
       4228.5684       1.1804123
       4229.6474       1.2487000
       4230.7264       1.3401893
       4231.8054       1.3262448
       4232.8843       1.3289155
       4233.9633       1.3111290
       4235.0423       1.3165231
       4236.1213       1.3797414
       4237.2002       1.3282889
       4238.2792       1.3454869
       4239.3582       1.4299427
       4240.4372       1.4143828
       4241.5162       1.3856400
       4242.5951       1.4021683
       4243.6741       1.4744111
       4244.7531       1.3871991
       4245.8321       1.4026193
       4246.9111       1.3700327
       4247.9900       1.3150835
       4249.0690       1.2516472
       4250.1480       1.2867262
       4251.2270       1.2655105
       4252.3060       1.2227965
       4253.3849       1.3193379
       4254.4639       1.3886487
       4255.5429       1.3830575
       4256.6219       1.3554431
       4257.7009       1.3440026
       4258.7798       1.3007108
       4259.8588       1.3651693
       4260.9378       1.3449726
       4262.0168       1.4471582
       4263.0958       1.4432727
       4264.1747       1.4340146
       4265.2537       1.4006145
       4266.3327       1.4285543
       4267.4117       1.4441838
       4268.4907       1.3780113
       4269.5696       1.2429152
       4270.6486       1.1913561
       4271.7276       1.2152759
       4272.8066       1.1481576
       4273.8856       1.2634099
       4274.9645       1.3034349
       4276.0435       1.3310558
       4277.1225       1.3796044
       4278.2015       1.3459358
       4279.2804       1.4143761
       4280.3594       1.3866028
       4281.4384       1.3414257
       4282.5174       1.3312273
       4283.5964       1.3299790
       4284.6753       1.2808789
       4285.7543       1.2926793
       4286.8333       1.2737124
       4287.9123       1.2569523
       4288.9913       1.2094539
       4290.0702       1.2447656
       4291.1492       1.2562493
       4292.2282       1.2495581
       4293.3072       1.2887700
       4294.3862       1.2712796
       4295.4651       1.1555510
       4296.5441       1.1414455
       4297.6231       1.1501195
       4298.7021       1.0883891
       4299.7811       1.0575612
       4300.8600       1.0682710
       4301.9390       1.0326402
       4303.0180      0.99076172
       4304.0970       1.0239277
       4305.1760      0.96394606
       4306.2549      0.86725635
       4307.3339      0.98430662
       4308.4129      0.97963610
       4309.4919      0.99016109
       4310.5709       1.1095103
       4311.6498       1.2573956
       4312.7288       1.3475136
       4313.8078       1.5336456
       4314.8868       1.6107954
       4315.9658       1.6230644
       4317.0447       1.6607178
       4318.1237       1.6995711
       4319.2027       1.5644644
       4320.2817       1.5472341
       4321.3606       1.3863911
       4322.4396       1.3084472
       4323.5186       1.3103112
       4324.5976       1.3504907
       4325.6766       1.3353294
       4326.7555       1.3877702
       4327.8345       1.3890389
       4328.9135       1.5355100
       4329.9925       1.5958572
       4331.0715       1.7465372
       4332.1504       1.6672207
       4333.2294       1.5541998
       4334.3084       1.4981059
       4335.3874       1.4329829
       4336.4664       1.3691238
       4337.5453       1.2652619
       4338.6243       1.2938166
       4339.7033       1.3200110
       4340.7823       1.3694311
       4341.8613       1.4813278
       4342.9402       1.4243130
       4344.0192       1.4904974
       4345.0982       1.5495543
       4346.1772       1.6345492
       4347.2562       1.6161050
       4348.3351       1.5157186
       4349.4141       1.5114763
       4350.4931       1.4496406
       4351.5721       1.4984969
       4352.6511       1.3689102
       4353.7300       1.2938489
       4354.8090       1.4198777
       4355.8880       1.5227898
       4356.9670       1.5759911
       4358.0460       1.6545621
       4359.1249       1.6422852
       4360.2039       1.6391319
       4361.2829       1.6563365
       4362.3619       1.6097401
       4363.4408       1.6523190
       4364.5198       1.6473418
       4365.5988       1.7958119
       4366.6778       1.6776286
       4367.7568       1.7113649
       4368.8357       1.6517695
       4369.9147       1.6016418
       4370.9937       1.4986187
       4372.0727       1.4457874
       4373.1517       1.5432758
       4374.2306       1.5381179
       4375.3096       1.5181619
       4376.3886       1.5892180
       4377.4676       1.5593075
       4378.5466       1.4054115
       4379.6255       1.3443615
       4380.7045       1.2813144
       4381.7835       1.3501800
       4382.8625       1.3399696
       4383.9415       1.4456910
       4385.0204       1.4613788
       4386.0994       1.5965391
       4387.1784       1.6022546
       4388.2574       1.6056665
       4389.3364       1.5676767
       4390.4153       1.6184247
       4391.4943       1.6456999
       4392.5733       1.6293038
       4393.6523       1.6875134
       4394.7313       1.7298746
       4395.8102       1.7064323
       4396.8892       1.7856866
       4397.9682       1.6575992
       4399.0472       1.6290787
       4400.1262       1.5601756
       4401.2051       1.5728496
       4402.2841       1.5352361
       4403.3631       1.5709880
       4404.4421       1.6336761
       4405.5210       1.6638651
       4406.6000       1.7934757
       4407.6790       1.8339356
       4408.7580       1.8790555
       4409.8370       1.8346398
       4410.9159       1.7827248
       4411.9949       1.8227287
       4413.0739       1.8662845
       4414.1529       1.8507585
       4415.2319       1.8162726
       4416.3108       1.8910350
       4417.3898       1.8901551
       4418.4688       1.9339122
       4419.5478       1.7557466
       4420.6268       1.8436371
       4421.7057       1.8290061
       4422.7847       1.8562621
       4423.8637       1.9088592
       4424.9427       1.9066963
       4426.0217       1.9128685
       4427.1006       1.8135487
       4428.1796       1.8983052
       4429.2586       1.8065378
       4430.3376       1.8282393
       4431.4166       1.8442405
       4432.4955       1.8425597
       4433.5745       1.8342032
       4434.6535       1.8753349
       4435.7325       1.8631054
       4436.8115       1.8500529
       4437.8904       1.8661880
       4438.9694       1.8228196
       4440.0484       1.8313598
       4441.1274       1.8471778
       4442.2064       1.8854184
       4443.2853       1.8508713
       4444.3643       1.8836371
       4445.4433       1.9557930
       4446.5223       1.8734863
       4447.6012       1.8671166
       4448.6802       1.7725593
       4449.7592       1.6757727
       4450.8382       1.7360812
       4451.9172       1.7344054
       4452.9961       1.6160351
       4454.0751       1.6128074
       4455.1541       1.6890866
       4456.2331       1.7208911
       4457.3121       1.7503445
       4458.3910       1.8101455
       4459.4700       1.7744119
       4460.5490       1.7691503
       4461.6280       1.8179927
       4462.7070       1.8736336
       4463.7859       1.8146500
       4464.8649       1.7862661
       4465.9439       1.7978040
       4467.0229       1.8072950
       4468.1019       1.8185270
       4469.1808       1.8608341
       4470.2598       1.8885193
       4471.3388       1.9091187
       4472.4178       1.9664673
       4473.4968       1.8586764
       4474.5757       1.8281350
       4475.6547       1.8902008
       4476.7337       1.8438463
       4477.8127       1.9276569
       4478.8917       1.8465668
       4479.9706       1.8462305
       4481.0496       1.8825146
       4482.1286       1.9153216
       4483.2076       1.9803102
       4484.2866       1.8976471
       4485.3655       1.9246792
       4486.4445       1.9053704
       4487.5235       1.8851921
       4488.6025       1.8864354
       4489.6814       1.9349583
       4490.7604       1.9580423
       4491.8394       1.8785478
       4492.9184       1.9892419
       4493.9974       1.9814900
       4495.0763       1.9968001
       4496.1553       1.9740111
       4497.2343       1.9950735
       4498.3133       2.0054510
       4499.3923       2.0684281
       4500.4712       2.0585701
       4501.5502       1.9966367
       4502.6292       2.0616820
       4503.7082       2.0226012
       4504.7872       2.1034062
       4505.8661       2.1064518
       4506.9451       2.1211867
       4508.0241       2.0387649
       4509.1031       2.0246052
       4510.1821       2.0702926
       4511.2610       1.9836921
       4512.3400       1.9054216
       4513.4190       2.0113234
       4514.4980       2.0604993
       4515.5770       2.0226831
       4516.6559       2.0244034
       4517.7349       1.9410183
       4518.8139       1.9469450
       4519.8929       1.9388145
       4520.9719       1.8918522
       4522.0508       1.8526511
       4523.1298       1.9086344
       4524.2088       1.9305907
       4525.2878       1.8257457
       4526.3668       1.9450868
       4527.4457       1.9515127
       4528.5247       1.9606773
       4529.6037       1.9696974
       4530.6827       1.9758261
       4531.7616       1.9191256
       4532.8406       1.9810220
       4533.9196       2.0661455
       4534.9986       2.0809189
       4536.0776       2.0297641
       4537.1565       2.1614238
       4538.2355       2.1127340
       4539.3145       2.0569714
       4540.3935       2.1117322
       4541.4725       2.1220625
       4542.5514       1.9806741
       4543.6304       1.9730772
       4544.7094       1.9721561
       4545.7884       1.9484863
       4546.8674       2.0108810
       4547.9463       1.8656670
       4549.0253       1.9686110
       4550.1043       2.0614722
       4551.1833       2.0500485
       4552.2623       2.0636016
       4553.3412       2.0495149
       4554.4202       2.0600569
       4555.4992       2.1976059
       4556.5782       2.1126408
       4557.6572       2.1133981
       4558.7361       2.0931456
       4559.8151       2.0024065
       4560.8941       2.0945064
       4561.9731       2.0624401
       4563.0521       2.0099339
       4564.1310       2.0758292
       4565.2100       2.1190347
       4566.2890       2.0700871
       4567.3680       2.1915225
       4568.4470       2.1396860
       4569.5259       2.1082352
       4570.6049       2.0798549
       4571.6839       2.1272430
       4572.7629       2.0517189
       4573.8418       2.1410534
       4574.9208       2.1384462
       4575.9998       2.1238747
       4577.0788       2.0454665
       4578.1578       2.0735085
       4579.2367       2.0353336
       4580.3157       2.1420391
       4581.3947       2.0962456
       4582.4737       2.0751639
       4583.5527       2.0642427
       4584.6316       2.1287928
       4585.7106       2.0328574
       4586.7896       2.0936068
       4587.8686       2.0162357
       4588.9476       1.9536597
       4590.0265       2.0823338
       4591.1055       2.1685976
       4592.1845       2.0316619
       4593.2635       2.0916713
       4594.3425       2.0209295
       4595.4214       2.0187632
       4596.5004       2.0904438
       4597.5794       2.0576368
       4598.6584       2.0170267
       4599.7374       2.0682536
       4600.8163       2.0882174
       4601.8953       2.0175868
       4602.9743       2.1055795
       4604.0533       2.0942473
       4605.1323       2.0969341
       4606.2112       2.1555891
       4607.2902       2.0719908
       4608.3692       2.0988330
       4609.4482       2.1094556
       4610.5272       2.1167818
       4611.6061       2.1201060
       4612.6851       2.1164413
       4613.7641       2.1660402
       4614.8431       2.0496235
       4615.9220       2.1055891
       4617.0010       2.1076628
       4618.0800       2.0902351
       4619.1590       2.0674086
       4620.2380       2.0721811
       4621.3169       2.1532421
       4622.3959       2.0669738
       4623.4749       2.0957092
       4624.5539       2.2181201
       4625.6329       2.1552080
       4626.7118       2.0863128
       4627.7908       2.1063431
       4628.8698       2.0763034
       4629.9488       2.1051369
       4631.0278       2.0150072
       4632.1067       2.1003638
       4633.1857       2.1027917
       4634.2647       2.0821685
       4635.3437       2.1119395
       4636.4227       2.0717101
       4637.5016       2.1884189
       4638.5806       2.0923631
       4639.6596       2.1145945
       4640.7386       2.1006493
       4641.8176       1.9952370
       4642.8965       2.0912667
       4643.9755       2.0739157
       4645.0545       2.1531868
       4646.1335       2.1199751
       4647.2125       2.1274042
       4648.2914       2.0987162
       4649.3704       2.1215345
       4650.4494       2.1449649
       4651.5284       2.1480400
       4652.6074       2.1600994
       4653.6863       2.2753647
       4654.7653       2.2372748
       4655.8443       2.1738556
       4656.9233       2.1519772
       4658.0022       2.1732557
       4659.0812       2.1175107
       4660.1602       2.1465601
       4661.2392       2.1236097
       4662.3182       2.1397154
       4663.3971       2.1827336
       4664.4761       2.2221182
       4665.5551       2.2554928
       4666.6341       2.2345774
       4667.7131       2.1746006
       4668.7920       2.2286396
       4669.8710       2.1997644
       4670.9500       2.1961694
       4672.0290       2.2426571
       4673.1080       2.2663752
       4674.1869       2.2344932
       4675.2659       2.2299255
       4676.3449       2.1989158
       4677.4239       2.2642614
       4678.5029       2.2076629
       4679.5818       2.2669333
       4680.6608       2.1880358
       4681.7398       2.1903468
       4682.8188       2.2724226
       4683.8978       2.2851473
       4684.9767       2.2364694
       4686.0557       2.2421967
       4687.1347       2.1795718
       4688.2137       2.1863967
       4689.2927       2.2288836
       4690.3716       2.2546252
       4691.4506       2.1216706
       4692.5296       2.2416799
       4693.6086       2.1198506
       4694.6876       2.1861698
       4695.7665       2.0891181
       4696.8455       2.1920911
       4697.9245       2.2077982
       4699.0035       2.1692062
       4700.0824       2.1369404
       4701.1614       2.2157199
       4702.2404       2.2366412
       4703.3194       2.3312726
       4704.3984       2.2597495
       4705.4773       2.2174493
       4706.5563       2.2550104
       4707.6353       2.2854525
       4708.7143       2.3294750
       4709.7933       2.3646518
       4710.8722       2.2589960
       4711.9512       2.3043087
       4713.0302       2.2894025
       4714.1092       2.3888016
       4715.1882       2.3209054
       4716.2671       2.2705528
       4717.3461       2.2509487
       4718.4251       2.2325730
       4719.5041       2.2569508
       4720.5831       2.2670011
       4721.6620       2.2044095
       4722.7410       2.1871335
       4723.8200       2.2871410
       4724.8990       2.1677917
       4725.9780       2.1885730
       4727.0569       2.2291351
       4728.1359       2.2070270
       4729.2149       2.3080403
       4730.2939       2.3076162
       4731.3729       2.2773428
       4732.4518       2.3311182
       4733.5308       2.2355578
       4734.6098       2.2673719
       4735.6888       2.2637929
       4736.7678       2.2761457
       4737.8467       2.1775961
       4738.9257       2.2979728
       4740.0047       2.3029678
       4741.0837       2.2278760
       4742.1626       2.2088218
       4743.2416       2.1883734
       4744.3206       2.1927504
       4745.3996       2.1760906
       4746.4786       2.2178315
       4747.5575       2.2336001
       4748.6365       2.2833072
       4749.7155       2.1917422
       4750.7945       2.1963477
       4751.8735       2.1403706
       4752.9524       2.1367480
       4754.0314       2.2413679
       4755.1104       2.2638426
       4756.1894       2.2413563
       4757.2684       2.1767795
       4758.3473       2.2349050
       4759.4263       2.1622203
       4760.5053       2.2243811
       4761.5843       2.2823390
       4762.6633       2.2266914
       4763.7422       2.2287750
       4764.8212       2.1610149
       4765.9002       2.1835017
       4766.9792       2.2637523
       4768.0582       2.2289158
       4769.1371       2.2553106
       4770.2161       2.2940399
       4771.2951       2.2145891
       4772.3741       2.1141069
       4773.4531       2.2148385
       4774.5320       2.2562078
       4775.6110       2.3053657
       4776.6900       2.1846510
       4777.7690       2.2272817
       4778.8480       2.3102275
       4779.9269       2.3561096
       4781.0059       2.2843925
       4782.0849       2.3413005
       4783.1639       2.3944500
       4784.2428       2.4551932
       4785.3218       2.4040337
       4786.4008       2.4327333
       4787.4798       2.4005214
       4788.5588       2.3763495
       4789.6377       2.4060974
       4790.7167       2.4273568
       4791.7957       2.4193621
       4792.8747       2.4581594
       4793.9537       2.4543187
       4795.0326       2.3911053
       4796.1116       2.3583100
       4797.1906       2.3282111
       4798.2696       2.3082143
       4799.3486       2.3370040
       4800.4275       2.3259588
       4801.5065       2.4553043
       4802.5855       2.3315868
       4803.6645       2.4157142
       4804.7435       2.3685017
       4805.8224       2.4945894
       4806.9014       2.5404537
       4807.9804       2.5281771
       4809.0594       2.4194553
       4810.1384       2.3459364
       4811.2173       2.3408644
       4812.2963       2.4036994
       4813.3753       2.3846084
       4814.4543       2.4162760
       4815.5333       2.3977344
       4816.6122       2.4562266
       4817.6912       2.3953115
       4818.7702       2.4684735
       4819.8492       2.3892322
       4820.9282       2.4237156
       4822.0071       2.3890490
       4823.0861       2.4360526
       4824.1651       2.4690144
       4825.2441       2.5007355
       4826.3230       2.4391790
       4827.4020       2.3589805
       4828.4810       2.3190704
       4829.5600       2.3734502
       4830.6390       2.4767379
       4831.7179       2.3424118
       4832.7969       2.4168271
       4833.8759       2.3658076
       4834.9549       2.3492025
       4836.0339       2.4316739
       4837.1128       2.5357819
       4838.1918       2.4658247
       4839.2708       2.4174875
       4840.3498       2.3896135
       4841.4288       2.4236308
       4842.5077       2.3227168
       4843.5867       2.2084797
       4844.6657       2.1316006
       4845.7447       2.0078092
       4846.8237       1.9692933
       4847.9026       1.9933202
       4848.9816       1.9784134
       4850.0606       2.0335826
       4851.1396       2.1483943
       4852.2186       2.2229937
       4853.2975       2.1719085
       4854.3765       2.2244662
       4855.4555       2.2318940
       4856.5345       2.3334670
       4857.6135       2.2413347
       4858.6924       2.1895232
       4859.7714       2.3340687
       4860.8504       2.2758468
       4861.9294       2.3274289
       4863.0084       2.3247973
       4864.0873       2.3429077
       4865.1663       2.3251539
       4866.2453       2.3616270
       4867.3243       2.3220632
       4868.4032       2.3469460
       4869.4822       2.4124152
       4870.5612       2.3608245
       4871.6402       2.4322017
       4872.7192       2.4202988
       4873.7981       2.3159184
       4874.8771       2.2219446
       4875.9561       2.2227220
       4877.0351       2.2080846
       4878.1141       2.2690948
       4879.1930       2.3425091
       4880.2720       2.4015239
       4881.3510       2.4136361
       4882.4300       2.4853011
       4883.5090       2.4932192
       4884.5879       2.4547318
       4885.6669       2.4124723
       4886.7459       2.3902025
       4887.8249       2.3674598
       4888.9039       2.4380199
       4889.9828       2.3879689
       4891.0618       2.4387212
       4892.1408       2.4006861
       4893.2198       2.3964284
       4894.2988       2.3943164
       4895.3777       2.3715870
       4896.4567       2.3661625
       4897.5357       2.4231421
       4898.6147       2.4638857
       4899.6937       2.3721917
       4900.7726       2.4119442
       4901.8516       2.3754812
       4902.9306       2.2791865
       4904.0096       2.2473151
       4905.0886       2.2316673
       4906.1675       2.1832452
       4907.2465       2.2064688
       4908.3255       2.2006697
       4909.4045       2.2592380
       4910.4834       2.3227219
       4911.5624       2.4999156
       4912.6414       2.4480203
       4913.7204       2.4410339
       4914.7994       2.4013887
       4915.8783       2.3895106
       4916.9573       2.3759780
       4918.0363       2.4191876
       4919.1153       2.3146307
       4920.1943       2.2835880
       4921.2732       2.3754281
       4922.3522       2.3396933
       4923.4312       2.2624092
       4924.5102       2.4082552
       4925.5892       2.3742575
       4926.6681       2.3669027
       4927.7471       2.3106278
       4928.8261       2.3292182
       4929.9051       2.3409784
       4930.9841       2.4498006
       4932.0630       2.4127378
       4933.1420       2.4887844
       4934.2210       2.4823821
       4935.3000       2.4483924
       4936.3790       2.4495560
       4937.4579       2.4368508
       4938.5369       2.3765144
       4939.6159       2.3029974
       4940.6949       2.2017276
       4941.7739       2.2184248
       4942.8528       2.3217548
       4943.9318       2.3261206
       4945.0108       2.4230777
       4946.0898       2.3631216
       4947.1688       2.4055700
       4948.2477       2.4226689
       4949.3267       2.4548842
       4950.4057       2.5257893
       4951.4847       2.3494583
       4952.5636       2.4014650
       4953.6426       2.4618638
       4954.7216       2.4561625
       4955.8006       2.4621104
       4956.8796       2.5926393
       4957.9585       2.5478818
       4959.0375       2.5126246
       4960.1165       2.5437592
       4961.1955       2.5010843
       4962.2745       2.5005049
       4963.3534       2.3997993
       4964.4324       2.3439548
       4965.5114       2.3627037
       4966.5904       2.2664746
       4967.6694       2.2849281
       4968.7483       2.2405842
       4969.8273       2.1839756
       4970.9063       2.1186011
       4971.9853       2.2124707
       4973.0643       2.3010043
       4974.1432       2.3290594
       4975.2222       2.4192026
       4976.3012       2.4597797
       4977.3802       2.4586800
       4978.4592       2.4227321
       4979.5381       2.4737385
       4980.6171       2.3536152
       4981.6961       2.3347815
       4982.7751       2.3123191
       4983.8541       2.3127238
       4984.9330       2.3589967
       4986.0120       2.3238827
       4987.0910       2.2398004
       4988.1700       2.3527884
       4989.2490       2.3177824
       4990.3279       2.3291823
       4991.4069       2.3465834
       4992.4859       2.3427421
       4993.5649       2.3189211
       4994.6438       2.2712552
       4995.7228       2.3632451
       4996.8018       2.2606618
       4997.8808       2.2663776
       4998.9598       2.2217465
       5000.0387       2.2325194
       5001.1177       2.2890507
       5002.1967       2.2794634
       5003.2757       2.3362485
       5004.3547       2.2121105
       5005.4336       2.3390513
       5006.5126       2.3233356
       5007.5916       2.3395098
       5008.6706       2.3633010
       5009.7496       2.4456208
       5010.8285       2.4447190
       5011.9075       2.4147735
       5012.9865       2.4346942
       5014.0655       2.4282783
       5015.1445       2.3363228
       5016.2234       2.3233413
       5017.3024       2.3840879
       5018.3814       2.3628300
       5019.4604       2.3523877
       5020.5394       2.2787975
       5021.6183       2.2477812
       5022.6973       2.2351686
       5023.7763       2.2973692
       5024.8553       2.3449061
       5025.9343       2.4293417
       5027.0132       2.3820943
       5028.0922       2.3865040
       5029.1712       2.4254751
       5030.2502       2.3619666
       5031.3292       2.3318106
       5032.4081       2.2284062
       5033.4871       2.3545067
       5034.5661       2.3438618
       5035.6451       2.3756497
       5036.7240       2.4545071
       5037.8030       2.3036736
       5038.8820       2.3876219
       5039.9610       2.4028845
       5041.0400       2.5011003
       5042.1189       2.4316790
       5043.1979       2.3621939
       5044.2769       2.3848029
       5045.3559       2.3793458
       5046.4349       2.3232670
       5047.5138       2.2921832
       5048.5928       2.3139594
       5049.6718       2.3453306
       5050.7508       2.3412048
       5051.8298       2.2831911
       5052.9087       2.3902519
       5053.9877       2.3885129
       5055.0667       2.3695921
       5056.1457       2.4563013
       5057.2247       2.4568016
       5058.3036       2.3526230
       5059.3826       2.2535896
       5060.4616       2.2503266
       5061.5406       2.1924467
       5062.6196       2.2462356
       5063.6985       2.2997140
       5064.7775       2.2511651
       5065.8565       2.3778399
       5066.9355       2.3152810
       5068.0145       2.3491277
       5069.0934       2.4086918
       5070.1724       2.5171854
       5071.2514       2.4195927
       5072.3304       2.4488208
       5073.4094       2.4111350
       5074.4883       2.3885050
       5075.5673       2.3398803
       5076.6463       2.4758541
       5077.7253       2.4001288
       5078.8042       2.3785075
       5079.8832       2.3981579
       5080.9622       2.3585861
       5082.0412       2.4382120
       5083.1202       2.4680528
       5084.1991       2.4445720
       5085.2781       2.3581433
       5086.3571       2.3533532
       5087.4361       2.3380537
       5088.5151       2.3386854
       5089.5940       2.3472979
       5090.6730       2.3233890
       5091.7520       2.3595504
       5092.8310       2.3361058
       5093.9100       2.4689616
       5094.9889       2.5232251
       5096.0679       2.5798111
       5097.1469       2.3623567
       5098.2259       2.4837229
       5099.3049       2.4731458
       5100.3838       2.4165998
       5101.4628       2.4491033
       5102.5418       2.2634645
       5103.6208       2.3329238
       5104.6998       2.3511690
       5105.7787       2.3938013
       5106.8577       2.3601048
       5107.9367       2.2712791
       5109.0157       2.3495535
       5110.0947       2.3701332
       5111.1736       2.3509967
       5112.2526       2.3805389
       5113.3316       2.4122153
       5114.4106       2.3772907
       5115.4896       2.3531562
       5116.5685       2.3105330
       5117.6475       2.3826847
       5118.7265       2.3607896
       5119.8055       2.3278310
       5120.8844       2.3196389
       5121.9634       2.3921043
       5123.0424       2.3729847
       5124.1214       2.4963496
       5125.2004       2.4193151
       5126.2793       2.3892279
       5127.3583       2.4096877
       5128.4373       2.4367422
       5129.5163       2.3659170
       5130.5953       2.3216258
       5131.6742       2.3571282
       5132.7532       2.3685795
       5133.8322       2.4579660
       5134.9112       2.4795144
       5135.9902       2.4890050
       5137.0691       2.5602765
       5138.1481       2.4138429
       5139.2271       2.4157235
       5140.3061       2.3954930
       5141.3851       2.2932920
       5142.4640       2.2549138
       5143.5430       2.1733324
       5144.6220       2.0259072
       5145.7010       1.9028479
       5146.7800       1.8042548
       5147.8589       1.7560874
       5148.9379       1.7080828
       5150.0169       1.7877913
       5151.0959       1.8358238
       5152.1749       1.9944624
       5153.2538       2.0514400
       5154.3328       2.1887316
       5155.4118       2.2967915
       5156.4908       2.2026779
       5157.5698       2.1155773
       5158.6487       1.9342172
       5159.7277       1.8758408
       5160.8067       1.7879957
       5161.8857       1.9837319
       5162.9647       2.0359398
       5164.0436       2.1147704
       5165.1226       2.2509207
       5166.2016       2.2605467
       5167.2806       2.3473004
       5168.3595       2.2901829
       5169.4385       2.2729273
       5170.5175       2.3415834
       5171.5965       2.3685138
       5172.6755       2.3930677
       5173.7544       2.4156679
       5174.8334       2.4826536
       5175.9124       2.5232975
       5176.9914       2.5096147
       5178.0704       2.4901632
       5179.1493       2.5591704
       5180.2283       2.4021744
       5181.3073       2.3005187
       5182.3863       2.2555354
       5183.4653       2.2464600
       5184.5442       2.1645410
       5185.6232       2.1999285
       5186.7022       2.3204487
       5187.7812       2.2974815
       5188.8602       2.3882047
       5189.9391       2.4185611
       5191.0181       2.4702527
       5192.0971       2.4400537
       5193.1761       2.5090487
       5194.2551       2.5543321
       5195.3340       2.4966477
       5196.4130       2.6191812
       5197.4920       2.6669189
       5198.5710       2.5033438
       5199.6500       2.5553103
       5200.7289       2.4921350
       5201.8079       2.3982465
       5202.8869       2.2858134
       5203.9659       2.3772062
       5205.0449       2.3828182
       5206.1238       2.3901191
       5207.2028       2.4790083
       5208.2818       2.3818917
       5209.3608       2.3623229
       5210.4397       2.4092757
       5211.5187       2.5241059
       5212.5977       2.5455697
       5213.6767       2.4886969
       5214.7557       2.5244456
       5215.8346       2.5464977
       5216.9136       2.4915240
       5217.9926       2.5156214
       5219.0716       2.5248892
       5220.1506       2.5649369
       5221.2295       2.5679388
       5222.3085       2.5325424
       5223.3875       2.4770557
       5224.4665       2.4991872
       5225.5455       2.4757440
       5226.6244       2.4199785
       5227.7034       2.4620123
       5228.7824       2.5436412
       5229.8614       2.5497244
       5230.9404       2.5431550
       5232.0193       2.5609677
       5233.0983       2.5355345
       5234.1773       2.4504095
       5235.2563       2.5059760
       5236.3353       2.3952658
       5237.4142       2.2558392
       5238.4932       2.3255548
       5239.5722       2.1693345
       5240.6512       2.1528087
       5241.7302       2.1494200
       5242.8091       2.0549387
       5243.8881       2.0926161
       5244.9671       2.1379935
       5246.0461       2.2210485
       5247.1251       2.3196472
       5248.2040       2.3667895
       5249.2830       2.3088230
       5250.3620       2.4319154
       5251.4410       2.4713862
       5252.5199       2.4440577
       5253.5989       2.4875714
       5254.6779       2.4552317
       5255.7569       2.3395030
       5256.8359       2.4437945
       5257.9148       2.4312848
       5258.9938       2.3819012
       5260.0728       2.4401595
       5261.1518       2.4494140
       5262.2308       2.3815321
       5263.3097       2.4240629
       5264.3887       2.3736768
       5265.4677       2.4371706
       5266.5467       2.4353007
       5267.6257       2.4632547
       5268.7046       2.4480045
       5269.7836       2.4697197
       5270.8626       2.5185761
       5271.9416       2.3600255
       5273.0206       2.4424919
       5274.0995       2.4607475
       5275.1785       2.4382724
       5276.2575       2.4601551
       5277.3365       2.6091079
       5278.4155       2.5550394
       5279.4944       2.4982366
       5280.5734       2.5452679
       5281.6524       2.5364547
       5282.7314       2.4820136
       5283.8104       2.5270343
       5284.8893       2.4877980
       5285.9683       2.5514199
       5287.0473       2.5263547
       5288.1263       2.5180362
       5289.2053       2.4432964
       5290.2842       2.4579428
       5291.3632       2.5509213
       5292.4422       2.5500617
       5293.5212       2.5078903
       5294.6001       2.4878973
       5295.6791       2.3994015
       5296.7581       2.3170213
       5297.8371       2.2890055
       5298.9161       2.3104550
       5299.9950       2.2006625
       5301.0740       2.2541477
       5302.1530       2.2640742
       5303.2320       2.3519151
       5304.3110       2.3606454
       5305.3899       2.5164960
       5306.4689       2.5028282
       5307.5479       2.5648486
       5308.6269       2.6247795
       5309.7059       2.5685610
       5310.7848       2.4239870
       5311.8638       2.3817434
       5312.9428       2.4141193
       5314.0218       2.3253137
       5315.1008       2.4715212
       5316.1797       2.4366090
       5317.2587       2.4423448
       5318.3377       2.4806324
       5319.4167       2.4773353
       5320.4957       2.5088092
       5321.5746       2.3919815
       5322.6536       2.4175243
       5323.7326       2.4832846
       5324.8116       2.5167813
       5325.8906       2.5930674
       5326.9695       2.6040860
       5328.0485       2.5238164
       5329.1275       2.6183936
       5330.2065       2.6054515
       5331.2855       2.4986838
       5332.3644       2.4303406
       5333.4434       2.4931497
       5334.5224       2.5076685
       5335.6014       2.4473771
       5336.6803       2.3914418
       5337.7593       2.4721230
       5338.8383       2.4131666
       5339.9173       2.4655469
       5340.9963       2.4391776
       5342.0752       2.4155179
       5343.1542       2.4598418
       5344.2332       2.4333896
       5345.3122       2.4616026
       5346.3912       2.4607837
       5347.4701       2.4773417
       5348.5491       2.4512030
       5349.6281       2.5015708
       5350.7071       2.6469504
       5351.7861       2.5550416
       5352.8650       2.6197327
       5353.9440       2.5090982
       5355.0230       2.5289444
       5356.1020       2.4478251
       5357.1810       2.4522053
       5358.2599       2.5265748
       5359.3389       2.5155912
       5360.4179       2.5576190
       5361.4969       2.5534316
       5362.5759       2.3596945
       5363.6548       2.3832207
       5364.7338       2.4211754
       5365.8128       2.4348034
       5366.8918       2.4109763
       5367.9708       2.4079043
       5369.0497       2.4771601
       5370.1287       2.4465389
       5371.2077       2.4391595
       5372.2867       2.4234826
       5373.3657       2.3389241
       5374.4446       2.2631019
       5375.5236       2.3510682
       5376.6026       2.3252660
       5377.6816       2.3951861
       5378.7605       2.3230055
       5379.8395       2.3970972
       5380.9185       2.4621303
       5381.9975       2.4557148
       5383.0765       2.4032614
       5384.1554       2.5372851
       5385.2344       2.5008763
       5386.3134       2.5369679
       5387.3924       2.5947582
       5388.4714       2.5082633
       5389.5503       2.5041339
       5390.6293       2.5580219
       5391.7083       2.4782785
       5392.7873       2.5486925
       5393.8663       2.4618111
       5394.9452       2.4301404
       5396.0242       2.5770441
       5397.1032       2.4645197
       5398.1822       2.3984803
       5399.2612       2.5111164
       5400.3401       2.5352396
       5401.4191       2.4931675
       5402.4981       2.3362799
       5403.5771       2.3639268
       5404.6561       2.5168918
       5405.7350       2.6213154
       5406.8140       2.5440873
       5407.8930       2.5830722
       5408.9720       2.6158836
       5410.0510       2.5342835
       5411.1299       2.6422300
       5412.2089       2.6307675
       5413.2879       2.5006697
       5414.3669       2.4131887
       5415.4459       2.4306320
       5416.5248       2.4708008
       5417.6038       2.4829392
       5418.6828       2.5021493
       5419.7618       2.5427213
       5420.8407       2.5235607
       5421.9197       2.4825660
       5422.9987       2.4163840
       5424.0777       2.4701485
       5425.1567       2.4999307
       5426.2356       2.3914839
       5427.3146       2.3786883
       5428.3936       2.5131426
       5429.4726       2.4935971
       5430.5516       2.5629197
       5431.6305       2.5552430
       5432.7095       2.5958316
       5433.7885       2.5260022
       5434.8675       2.6089094
       5435.9465       2.5021064
       5437.0254       2.5164430
       5438.1044       2.4985730
       5439.1834       2.6343451
       5440.2624       2.5490057
       5441.3414       2.4214389
       5442.4203       2.5033389
       5443.4993       2.4770862
       5444.5783       2.4564548
       5445.6573       2.4351545
       5446.7363       2.4147759
       5447.8152       2.3941964
       5448.8942       2.4961645
       5449.9732       2.5239209
       5451.0522       2.5254434
       5452.1312       2.6849446
       5453.2101       2.4554783
       5454.2891       2.4764912
       6015.4745       6.3230992
       6016.6671       6.8018907
       6017.8598       5.8248587
       6019.0524       4.4461978
       6020.2450       4.0203531
       6021.4377       3.7412556
       6022.6303       3.4430526
       6023.8229       3.2620905
       6025.0156       3.4528318
       6026.2082       3.1404404
       6027.4008       2.9892461
       6028.5935       3.2399178
       6029.7861       3.6025486
       6030.9787       3.4198518
       6032.1714       3.3326169
       6033.3640       3.2957032
       6034.5566       3.3249094
       6035.7493       3.6763393
       6036.9419       3.5885285
       6038.1345       3.4766603
       6039.3272       3.4374077
       6040.5198       3.2896113
       6041.7124       3.2612977
       6042.9051       3.3559732
       6044.0977       3.3134425
       6045.2903       3.4463942
       6046.4830       3.4655203
       6047.6756       3.5094595
       6048.8682       3.5148166
       6050.0609       3.4534028
       6051.2535       3.6156837
       6052.4461       3.6183737
       6053.6388       3.3995141
       6054.8314       3.4921138
       6056.0240       3.4596968
       6057.2167       3.6253852
       6058.4093       3.5952382
       6059.6019       3.5793560
       6060.7946       3.3622764
       6061.9872       3.5061075
       6063.1798       3.5169972
       6064.3725       3.5505690
       6065.5651       3.4783271
       6066.7577       3.3466066
       6067.9504       3.3835190
       6069.1430       3.3686524
       6070.3356       3.3473228
       6071.5283       3.4240511
       6072.7209       3.4350687
       6073.9135       3.4951842
       6075.1062       3.5441617
       6076.2988       3.4631066
       6077.4914       3.4954316
       6078.6841       3.5513477
       6079.8767       3.5209002
       6081.0693       3.7002046
       6082.2620       3.4705062
       6083.4546       3.6170759
       6084.6472       3.4584185
       6085.8399       3.6619704
       6087.0325       3.5228413
       6088.2251       3.5012615
       6089.4178       3.5703444
       6090.6104       3.4615498
       6091.8030       3.2217451
       6092.9957       3.4414831
       6094.1883       3.2694418
       6095.3809       3.6407980
       6096.5736       3.5949106
       6097.7662       3.5503084
       6098.9588       3.6259938
       6100.1515       3.4879597
       6101.3441       3.6413441
       6102.5367       3.6469918
       6103.7294       3.6592985
       6104.9220       3.3663049
       6106.1146       3.5787510
       6107.3073       3.6616408
       6108.4999       3.7151248
       6109.6925       3.7978932
       6110.8852       3.5121486
       6112.0778       3.3972755
       6113.2704       3.8596310
       6114.4631       3.4420258
       6115.6557       3.4950286
       6116.8483       3.4543439
       6118.0410       3.7557917
       6119.2336       3.6240798
       6120.4262       3.8410267
       6121.6189       3.4856405
       6122.8115       3.2937940
       6124.0041       3.8776330
       6125.1968       3.5444707
       6126.3894       3.9142900
       6127.5820       3.4814272
       6128.7747       3.7788462
       6129.9673       3.5892683
       6131.1599       3.6609655
       6132.3526       3.7373155
       6133.5452       3.5507922
       6134.7378       3.9215560
       6135.9305       3.7579913
       6137.1231       3.6139680
       6138.3157       3.9118298
       6139.5084       3.6824794
       6140.7010       3.5438407
       6141.8936       3.7593890
       6143.0863       3.5198475
       6144.2789       3.3389975
       6145.4715       3.8980778
       6146.6642       3.8047652
       6147.8568       3.8139337
       6149.0494       3.8025044
       6150.2421       3.5811238
       6151.4347       3.9511844
       6152.6273       3.7892972
       6153.8200       3.6150013
       6155.0126       3.8918684
       6156.2052       3.9266052
       6157.3979       3.9168579
       6158.5905       3.7820307
       6159.7832       3.8031164
       6160.9758       3.7041113
       6162.1684       4.0538516
       6163.3611       3.7696135
       6164.5537       3.7676934
       6165.7463       3.9622340
       6166.9390       3.9941320
       6168.1316       3.7927216
       6169.3242       3.9170182
       6170.5169       4.0720042
       6171.7095       3.8709608
       6172.9021       3.8675834
       6174.0948       3.8522027
       6175.2874       3.5281718
       6176.4800       3.9172297
       6177.6727       3.9032046
       6178.8653       3.8574855
       6180.0579       3.8982424
       6181.2506       3.8538639
       6182.4432       3.5610008
       6183.6358       3.7548061
       6184.8285       3.8070412
       6186.0211       3.6462552
       6187.2137       3.7168607
       6188.4064       3.6021277
       6189.5990       3.6436097
       6190.7916       3.8533659
       6191.9843       3.8966530
       6193.1769       3.4898854
       6194.3695       3.9672582
       6195.5622       3.9040323
       6196.7548       3.6710078
       6197.9474       3.5211234
       6199.1401       3.7887029
       6200.3327       3.5294391
       6201.5253       3.8343554
       6202.7180       3.4329633
       6203.9106       4.0954799
       6205.1032       3.5335451
       6206.2959       3.8243690
       6207.4885       3.7259778
       6208.6811       3.8076387
       6209.8738       3.6461772
       6211.0664       3.7303318
       6212.2590       3.6656673
       6213.4517       3.6942747
       6214.6443       3.7899048
       6215.8369       3.9741078
       6217.0296       4.0996629
       6218.2222       3.8480050
       6219.4148       4.0992956
       6220.6075       3.7855501
       6221.8001       3.9103581
       6222.9927       3.9892158
       6224.1854       4.0871063
       6225.3780       3.9153550
       6226.5706       3.8469182
       6227.7633       3.5004300
       6228.9559       3.8189352
       6230.1485       3.5479236
       6231.3412       3.4011031
       6232.5338       3.5965124
       6233.7264       3.6070488
       6234.9191       3.5976666
       6236.1117       3.6951826
       6237.3043       3.5997719
       6238.4970       3.6065192
       6239.6896       3.6650692
       6240.8822       3.9758790
       6242.0749       3.7627639
       6243.2675       3.7804618
       6244.4601       3.8912055
       6245.6528       3.5934721
       6246.8454       3.9495568
       6248.0380       3.8193201
       6249.2307       3.7977112
       6250.4233       3.9864898
       6251.6159       3.8059354
       6252.8086       3.4829032
       6254.0012       3.9501906
       6255.1938       3.7183943
       6256.3865       3.6781521
       6257.5791       3.4261740
       6258.7717       3.7703832
       6259.9644       3.7433489
       6261.1570       3.6552414
       6262.3496       3.4269965
       6263.5423       3.3668895
       6264.7349       3.4800177
       6265.9275       3.7645180
       6267.1202       3.8012594
       6268.3128       3.6813265
       6269.5054       3.6854320
       6270.6981       3.6895685
       6271.8907       4.1528070
       6273.0833       4.1959572
       6274.2760       3.8716516
       6275.4686       3.7895351
       6276.6612       3.9678777
       6277.8539       3.8990698
       6279.0465       4.9216895
       6280.2391       5.4402559
       6281.4318       4.6583035
       6282.6244       3.8535877
       6283.8170       3.5814518
       6285.0097       3.9500746
       6286.2023       3.7714590
       6287.3949       3.6574474
       6288.5876       3.8711987
       6289.7802       3.6451783
       6290.9728       3.5234776
       6292.1655       3.9772122
       6293.3581       3.9426277
       6294.5507       3.6683828
       6295.7434       3.7949644
       6296.9360       3.9013414
       6298.1286       3.7767384
       6299.3213       3.7088985
       6300.5139       3.8801985
       6301.7065       3.9016429
       6302.8992       3.9978611
       6304.0918       3.8407954
       6305.2844       4.0797013
       6306.4771       3.9417638
       6307.6697       3.6725230
       6308.8623       3.7374795
       6310.0550       3.8855426
       6311.2476       3.7889451
       6312.4402       3.7553039
       6313.6329       3.6754857
       6314.8255       3.7180484
       6316.0181       3.9847469
       6317.2108       3.8911399
       6318.4034       3.8666372
       6319.5960       3.8036191
       6320.7887       3.7452341
       6321.9813       3.8458736
       6323.1739       3.5424663
       6324.3666       3.8872045
       6325.5592       3.6413374
       6326.7518       3.3350573
       6327.9445       3.8357168
       6329.1371       3.4390598
       6330.3298       3.8512065
       6331.5224       3.8414614
       6332.7150       3.7745804
       6333.9077       3.7096427
       6335.1003       3.9280691
       6336.2929       3.8026062
       6337.4856       3.8526596
       6338.6782       3.8815583
       6339.8708       3.6862646
       6341.0635       3.7277274
       6342.2561       3.9416900
       6343.4487       3.8402318
       6344.6414       3.6988381
       6345.8340       3.9223135
       6347.0266       3.9696278
       6348.2193       3.8348118
       6349.4119       3.7906404
       6350.6045       4.0806716
       6351.7972       4.0856449
       6352.9898       4.0246398
       6354.1824       3.8224049
       6355.3751       3.9915697
       6356.5677       3.8762950
       6357.7603       3.6489404
       6358.9530       3.8507219
       6360.1456       4.0149893
       6361.3382       3.6748765
       6362.5309       3.7808630
       6363.7235       3.7850156
       6364.9161       3.7937120
       6366.1088       3.8737412
       6367.3014       3.7357098
       6368.4940       3.7362035
       6369.6867       3.5824708
       6370.8793       3.8969748
       6372.0719       3.7747111
       6373.2646       3.8759450
       6374.4572       3.7120722
       6375.6498       3.7861511
       6376.8425       3.8761182
       6378.0351       4.0674359
       6379.2277       3.9195484
       6380.4204       4.0612661
       6381.6130       3.7324742
       6382.8056       4.1978040
       6383.9983       3.8109044
       6385.1909       3.9725320
       6386.3835       3.7271914
       6387.5762       3.7059419
       6388.7688       4.0329270
       6389.9614       3.7058416
       6391.1541       3.8419178
       6392.3467       4.1816626
       6393.5393       3.9326262
       6394.7320       4.1045868
       6395.9246       3.8978961
       6397.1172       4.0478477
       6398.3099       4.0098161
       6399.5025       4.0243726
       6400.6951       3.8253547
       6401.8878       3.6320811
       6403.0804       3.8206309
       6404.2730       3.7542344
       6405.4657       4.1087827
       6406.6583       3.6401924
       6407.8509       4.0909158
       6409.0436       3.9211359
       6410.2362       3.8136720
       6411.4288       3.7843810
       6412.6215       3.9047777
       6413.8141       4.0053644
       6415.0067       4.1050416
       6416.1994       4.2875329
       6417.3920       4.5727342
       6418.5846       4.5487422
       6419.7773       4.3289617
       6420.9699       4.0107488
       6422.1625       3.8900087
       6423.3552       3.7009250
       6424.5478       3.5602900
       6425.7404       3.5348695
       6426.9331       3.8197959
       6428.1257       3.9012776
       6429.3183       3.7832320
       6430.5110       3.7798418
       6431.7036       3.8647197
       6432.8962       3.9703064
       6434.0889       3.7871039
       6435.2815       3.8782607
       6436.4741       3.9652312
       6437.6668       3.7581497
       6438.8594       3.6007343
       6440.0520       3.8415893
       6441.2447       3.9024023
       6442.4373       3.8268272
       6443.6299       3.8340743
       6444.8226       3.7661130
       6446.0152       3.9131172
       6447.2078       3.5574695
       6448.4005       3.7366135
       6449.5931       3.8178808
       6450.7857       3.8302995
       6451.9784       3.9961650
       6453.1710       3.8149102
       6454.3636       4.1217462
       6455.5563       3.8991954
       6456.7489       3.6731709
       6457.9415       3.6523956
       6459.1342       3.6053142
       6460.3268       3.7460183
       6461.5194       3.5623915
       6462.7121       3.6578548
       6463.9047       3.3656405
       6465.0973       3.5169218
       6466.2900       3.7609064
       6467.4826       3.3913877
       6468.6752       3.8189532
       6469.8679       3.7565541
       6471.0605       3.7028616
       6472.2531       4.1275746
       6473.4458       3.8723806
       6474.6384       3.8912395
       6475.8310       3.7308324
       6477.0237       3.5025819
       6478.2163       3.6708663
       6479.4089       3.8902136
       6480.6016       3.7589153
       6481.7942       3.7771249
       6482.9868       3.9285945
       6484.1795       3.7186325
       6485.3721       3.9634842
       6486.5647       3.6416349
       6487.7574       3.7226449
       6488.9500       3.7861583
       6490.1426       3.7996968
       6491.3353       3.9200655
       6492.5279       3.6657782
       6493.7205       3.7714215
       6494.9132       3.8358195
       6496.1058       3.8463554
       6497.2985       3.6907761
       6498.4911       3.6355901
       6499.6837       3.8550988
       6500.8764       4.0357064
       6502.0690       3.7171065
       6503.2616       3.8309351
       6504.4543       4.4877112
       6505.6469       4.6654616
       6506.8395       5.3187300
       6508.0322       5.3699390
       6509.2248       5.0904404
       6510.4174       5.8251154
       6511.6101       5.1749065
       6512.8027       5.1459411
       6513.9953       4.8211939
       6515.1880       4.5556698
       6516.3806       4.0724918
       6517.5732       3.8186703
       6518.7659       3.8462173
       6519.9585       3.6614284
       6521.1511       3.6408877
       6522.3438       3.6071944
       6523.5364       3.5471125
       6524.7290       3.3348881
       6525.9217       3.5478660
       6527.1143       3.4813104
       6528.3069       3.1251593
       6529.4996       2.8247699
       6530.6922       2.8824161
       6531.8848       2.8174498
       6533.0775       3.0014441
       6534.2701       3.0055784
       6535.4627       3.1553023
       6536.6554       3.3359061
       6537.8480       3.3219375
       6539.0406       3.5959982
       6540.2333       3.6889897
       6541.4259       3.7223019
       6542.6185       3.3449151
       6543.8112       3.6716316
       6545.0038       3.6549345
       6546.1964       3.5982800
       6547.3891       3.5287256
       6548.5817       3.6849004
       6549.7743       3.6013155
       6550.9670       3.7332690
       6552.1596       3.7573851
       6553.3522       3.2177220
       6554.5449       3.7887387
       6555.7375       3.5666290
       6556.9301       3.7444509
       6558.1228       3.7753334
       6559.3154       3.8840071
       6560.5080       3.5703000
       6561.7007       3.4954096
       6562.8933       3.4196314
       6564.0859       3.5112261
       6565.2786       3.5412095
       6566.4712       3.8331440
       6567.6638       3.5521431
       6568.8565       3.6809935
       6570.0491       3.8365098
       6571.2417       3.8015552
       6572.4344       3.5621219
       6573.6270       3.6005088
       6574.8196       3.5642904
       6576.0123       3.6430111
       6577.2049       3.6193180
       6578.3975       3.7416955
       6579.5902       3.8177870
       6580.7828       3.5869792
       6581.9754       3.8653251
       6583.1681       3.7839647
       6584.3607       3.6481443
       6585.5533       3.7063453
       6586.7460       3.8751367
       6587.9386       3.8314931
       6589.1312       3.7763056
       6590.3239       3.6144696
       6591.5165       3.6520813
       6592.7091       3.7244890
       6593.9018       3.8333140
       6595.0944       3.6087286
       6596.2870       3.4897841
       6597.4797       3.6575114
       6598.6723       3.3563566
       6599.8649       3.7730004
       6601.0576       3.6151789
       6602.2502       3.6180275
       6603.4428       3.6404086
       6604.6355       3.7096163
       6605.8281       3.7210108
       6607.0207       3.4207907
       6608.2134       3.7406641
       6609.4060       3.7264576
       6610.5986       3.6093611
       6611.7913       3.9379709
       6612.9839       3.4958620
       6614.1765       3.8450493
       6615.3692       3.8133514
       6616.5618       3.6411275
       6617.7544       3.4565565
       6618.9471       3.6970169
       6620.1397       3.8893319
       6621.3323       3.5615494
       6622.5250       3.8942567
       6623.7176       3.6661730
       6624.9102       3.5894963
       6626.1029       3.7079734
       6627.2955       3.5152765
       6628.4881       3.5214649
       6629.6808       3.7957790
       6630.8734       3.9412396
       6632.0660       3.7026068
       6633.2587       3.7257636
       6634.4513       3.7711822
       6635.6439       3.7561736
       6636.8366       3.8174018
       6638.0292       3.5593120
       6639.2218       3.8062946
       6640.4145       3.6348769
       6641.6071       3.5538958
       6642.7997       3.6766694
       6643.9924       3.4897296
       6645.1850       3.4518522
       6646.3776       3.4486528
       6647.5703       3.6149599
       6648.7629       3.6531364
       6649.9555       3.6693373
       6651.1482       3.7533395
       6652.3408       3.4551362
       6653.5334       3.6089333
       6654.7261       3.5903924
       6655.9187       3.7001838
       6657.1113       3.6438996
       6658.3040       4.0007387
       6659.4966       3.9213953
       6660.6892       3.8871423
       6661.8819       3.6857071
       6663.0745       3.6919566
       6664.2671       3.7669179
       6665.4598       3.7468491
       6666.6524       3.7923141
       6667.8451       3.8324694
       6669.0377       3.9375600
       6670.2303       4.0686051
       6671.4230       3.8128309
       6672.6156       3.8670479
       6673.8082       3.5670565
       6675.0009       3.5829469
       6676.1935       3.4967633
       6677.3861       3.6437636
       6678.5788       3.5928087
       6679.7714       3.6231827
       6680.9640       3.7212826
       6682.1567       3.9208626
       6683.3493       3.8454733
       6684.5419       3.7535276
       6685.7346       3.6775904
       6686.9272       3.7800546
       6688.1198       3.6927848
       6689.3125       3.2427898
       6690.5051       3.4145657
       6691.6977       3.7385948
       6692.8904       3.7678145
       6694.0830       3.7534905
       6695.2756       3.9996251
       6696.4683       4.0652271
       6697.6609       3.9739099
       6698.8535       3.8359132
       6700.0462       3.8570179
       6701.2388       3.8442467
       6702.4314       3.6620667
       6703.6241       3.6862055
       6704.8167       3.7913941
       6706.0093       3.8492049
       6707.2020       3.9014716
       6708.3946       3.6619335
       6709.5872       3.7929339
       6710.7799       3.7756649
       6711.9725       3.9079204
       6713.1651       3.7190842
       6714.3578       3.6280668
       6715.5504       3.8087692
       6716.7430       3.8303681
       6717.9357       3.7632371
       6719.1283       3.8276053
       6720.3209       3.7379488
       6721.5136       3.7351328
       6722.7062       3.5874713
       6723.8988       3.6822172
       6725.0915       3.5556770
       6726.2841       3.5710435
       6727.4767       3.6067434
       6728.6694       3.5757696
       6729.8620       3.9092738
       6731.0546       3.7288041
       6732.2473       3.7781678
       6733.4399       3.6595595
       6734.6325       3.7247740
       6735.8252       3.6891781
       6737.0178       3.7976268
       6738.2104       3.5879474
       6739.4031       3.6968807
       6740.5957       3.5698640
       6741.7883       3.6500542
       6742.9810       3.6878006
       6744.1736       3.5631649
       6745.3662       3.5098950
       6746.5589       3.6437303
       6747.7515       3.8670575
       6748.9441       3.8443069
       6750.1368       3.8092070
       6751.3294       3.6262401
       6752.5220       3.8407352
       6753.7147       3.9494705
       6754.9073       3.7668031
       6756.0999       3.8978670
       6757.2926       3.7043245
       6758.4852       3.8243876
       6759.6778       3.7868681
       6760.8705       3.8889673
       6762.0631       3.8175477
       6763.2557       3.6541387
       6764.4484       3.5574563
       6765.6410       3.8334029
       6766.8336       4.1817739
       6768.0263       3.9296972
       6769.2189       3.9046385
       6770.4115       3.7256315
       6771.6042       3.5710005
       6772.7968       3.8947690
       6773.9894       3.8590171
       6775.1821       3.7451449
       6776.3747       3.6776917
       6777.5673       3.7965484
       6778.7600       3.5880239
       6779.9526       3.4416798
       6781.1452       3.5322680
       6782.3379       3.7658459
       6783.5305       3.8034310
       6784.7231       3.5128875
       6785.9158       3.6476101
       6787.1084       3.7926332
       6788.3010       3.8115019
       6789.4937       3.8409029
       6790.6863       3.8205198
       6791.8789       3.7031746
       6793.0716       3.6766825
       6794.2642       4.2210555
       6795.4568       3.7772620
       6796.6495       3.7262005
       6797.8421       3.7713731
       6799.0347       3.4698143
       6800.2274       3.6588117
       6801.4200       3.5218734
       6802.6126       3.6406639
       6803.8053       3.7235540
       6804.9979       3.5426492
       6806.1905       3.5022696
       6807.3832       3.4948445
       6808.5758       3.6287022
       6809.7684       3.7452242
       6810.9611       3.8242974
       6812.1537       3.5423773
       6813.3463       3.5342111
       6814.5390       3.4071226
       6815.7316       3.6209974
       6816.9242       3.7408103
       6818.1169       3.6025801
       6819.3095       3.4180654
       6820.5021       3.5316491
       6821.6948       3.6330520
       6822.8874       3.6567438
       6824.0800       3.6591176
       6825.2727       3.9168770
       6826.4653       3.8440772
       6827.6579       3.6963327
       6828.8506       3.6409753
       6830.0432       3.7903576
       6831.2358       3.8661991
       6832.4285       3.9025444
       6833.6211       3.6995696
       6834.8137       3.7419286
       6836.0064       3.4619579
       6837.1990       3.5791410
       6838.3917       3.6167937
       6839.5843       3.7409330
       6840.7769       3.3969229
       6841.9696       3.5451303
       6843.1622       3.2797866
       6844.3548       3.1786336
       6845.5475       3.0668611
       6846.7401       2.9745989
       6847.9327       3.0260472
       6849.1254       2.8842808
       6850.3180       2.7490743
       6851.5106       3.0116786
       6852.7033       3.0459084
       6853.8959       3.2126457
       6855.0885       3.2913795
       6856.2812       3.0896556
       6857.4738       3.4034929
       6858.6664       3.3973930
       6859.8591       3.3773926
       6861.0517       3.4505820
       6862.2443       3.7105444
       6863.4370       3.3930802
       6864.6296       3.6586317
       6865.8222       3.4579006
       6867.0149       3.3976263
       6868.2075       3.5061940
       6869.4001       3.3474486
       6870.5928       3.2869015
       6871.7854       3.6574998
       6872.9780       3.3121816
       6874.1707       3.4192147
       6875.3633       3.5322331
       6876.5559       3.5205625
       6877.7486       3.4790646
       6878.9412       3.4980803
       6880.1338       3.5302751
       6881.3265       3.6428665
       6882.5191       3.3891986
       6883.7117       3.5115158
       6884.9044       3.5990860
       6886.0970       3.7585559
       6887.2896       3.4263830
       6888.4823       3.3524808
       6889.6749       3.5406480
       6890.8675       3.4381457
       6892.0602       3.6529411
       6893.2528       3.4030922
       6894.4454       3.4916928
       6895.6381       3.4182642
       6896.8307       3.7769704
       6898.0233       3.7550279
       6899.2160       3.7774472
       6900.4086       3.5089129
       6901.6012       3.6870447
       6902.7939       3.6548157
       6903.9865       3.5640592
       6905.1791       3.5382641
       6906.3718       3.5510628
       6907.5644       3.5260612
       6908.7570       3.5909530
       6909.9497       3.7141465
       6911.1423       3.7325172
       6912.3349       3.7126549
       6913.5276       3.7261273
       6914.7202       3.8072314
       6915.9128       3.5063340
       6917.1055       3.6635905
       6918.2981       3.6945973
       6919.4907       3.8591068
       6920.6834       3.8870565
       6921.8760       3.7209633
       6923.0686       3.5560756
       6924.2613       3.7684635
       6925.4539       3.6398587
       6926.6465       3.6998675
       6927.8392       3.5874885
       6929.0318       3.6364978
       6930.2244       3.5241485
       6931.4171       3.5000374
       6932.6097       3.5368583
       6933.8023       3.6955921
       6934.9950       3.6897497
       6936.1876       3.7724825
       6937.3802       3.9201416
       6938.5729       3.9269929
       6939.7655       3.8155386
       6940.9581       3.7041851
       6942.1508       3.7305208
       6943.3434       3.9447202
       6944.5360       3.6672010
       6945.7287       3.6194496
       6946.9213       3.8133663
       6948.1139       3.8142110
       6949.3066       3.5513820
       6950.4992       3.8215441
       6951.6918       3.9601500
       6952.8845       3.8334076
       6954.0771       3.8942657
       6955.2697       3.7632068
       6956.4624       3.6240183
       6957.6550       3.6212608
       6958.8476       3.8671758
       6960.0403       3.4681982
       6961.2329       3.6321761
       6962.4255       3.6847953
       6963.6182       3.8696543
       6964.8108       3.7655572
       6966.0034       3.7006085
       6967.1961       3.7881755
       6968.3887       3.6471333
       6969.5813       3.9364406
       6970.7740       3.6614990
       6971.9666       3.8520940
       6973.1592       3.6914428
       6974.3519       3.9550814
       6975.5445       3.7193474
       6976.7371       3.8981647
       6977.9298       3.8667152
       6979.1224       3.6334923
       6980.3150       3.7626219
       6981.5077       3.9400695
       6982.7003       3.5907606
       6983.8929       3.8117133
       6985.0856       3.6015148
       6986.2782       3.8154632
       6987.4708       3.8530720
       6988.6635       3.6736517
       6989.8561       3.7340919
       6991.0487       3.6890056
       6992.2414       3.7223839
       6993.4340       3.8141294
       6994.6266       3.9149266
       6995.8193       3.6957944
       6997.0119       3.6622668
       6998.2045       3.8959893
       6999.3972       3.8879398
       7000.5898       3.8069068
       7001.7824       3.9067041
       7002.9751       4.0202123
       7004.1677       3.7170708
       7005.3603       3.8355727
       7006.5530       3.8547066
       7007.7456       3.9290923
       7008.9383       3.9876331
       7010.1309       4.1802223
       7011.3235       4.0417014
       7012.5162       3.8092754
       7013.7088       3.6677998
       7014.9014       3.6658106
       7016.0941       3.6427993
       7017.2867       3.6291535
       7018.4793       3.8637784
       7019.6720       4.0889694
       7020.8646       3.7700809
       7022.0572       3.7108193
       7023.2499       3.9783592
       7024.4425       3.8197775
       7025.6351       3.8069871
       7026.8278       3.8201418
       7028.0204       3.7218724
       7029.2130       3.7686839
       7030.4057       3.7560456
       7031.5983       3.7052409
       7032.7909       3.6615223
       7033.9836       3.6745960
       7035.1762       3.8428999
       7036.3688       3.6554589
       7037.5615       3.8376785
       7038.7541       3.8841990
       7039.9467       3.8764135
       7041.1394       3.9214921
       7042.3320       3.6446597
       7043.5246       3.9833349
       7044.7173       3.7553232
       7045.9099       3.7984704
       7047.1025       3.9581108
       7048.2952       3.8701639
       7049.4878       3.7792879
       7050.6804       4.1406722
       7051.8731       3.6574490
       7053.0657       3.8732984
       7054.2583       3.9957476
       7055.4510       3.6612450
       7056.6436       3.7562650
       7057.8362       3.8667845
       7059.0289       3.8625199
       7060.2215       3.9989464
       7061.4141       3.7609564
       7062.6068       3.8354235
       7063.7994       3.7477595
       7064.9920       3.9046708
       7066.1847       3.8540497
       7067.3773       3.7003325
       7068.5699       3.8746382
       7069.7626       3.6033961
       7070.9552       3.6604124
       7072.1478       3.7655391
       7073.3405       3.8979431
       7074.5331       3.7201536
       7075.7257       3.6970588
       7076.9184       4.0583245
       7078.1110       3.7108312
       7079.3036       3.8626136
       7080.4963       3.6331093
       7081.6889       3.9121348
       7082.8815       3.7022014
       7084.0742       3.6792239
       7085.2668       3.7376870
       7086.4594       3.8551262
       7087.6521       3.8801162
       7088.8447       3.8392361
       7090.0373       3.9207850
       7091.2300       3.8483785
       7092.4226       4.0643490
       7093.6152       3.8907770
       7094.8079       3.8940567
       7096.0005       3.9113955
       7097.1931       3.9452815
       7098.3858       3.9429079
       7099.5784       3.9312789
       7100.7710       4.0906743
       7101.9637       3.7990493
       7103.1563       3.9526960
       7104.3489       3.9197935
       7105.5416       3.8417484
       7106.7342       3.8794509
       7107.9268       3.9565294
       7109.1195       3.5839366
       7110.3121       3.8985242
       7111.5047       3.9763058
       7112.6974       4.0947642
       7113.8900       4.1025083
       7115.0826       4.3182424
       7116.2753       4.3634579
       7117.4679       4.1761472
       7118.6605       4.4298014
       7119.8532       4.1153875
       7121.0458       3.9308718
       7122.2384       3.8095565
       7123.4311       4.0870920
       7124.6237       3.8842537
       7125.8163       3.8308157
       7127.0090       3.7929361
       7128.2016       3.6009211
       7129.3942       3.7268060
       7130.5869       3.8037551
       7131.7795       3.7260728
       7132.9721       3.7669026
       7134.1648       3.8322393
       7135.3574       3.8648529
       7136.5500       3.9616683
       7137.7427       3.7300470
       7138.9353       3.6731820
       7140.1279       3.8542241
       7141.3206       3.9243680
       7142.5132       3.9536215
       7143.7058       4.0192078
       7144.8985       3.7878823
       7146.0911       4.0586192
       7147.2837       3.7208034
       7148.4764       3.8693766
       7149.6690       3.6353883
       7150.8616       3.8352638
       7152.0543       3.7046798
       7153.2469       4.0505028
       7154.4395       3.7924667
       7155.6322       3.7979254
       7156.8248       3.6632717
       7158.0174       3.6798588
       7159.2101       3.7958832
       7160.4027       3.7537328
       7161.5953       3.7360864
       7162.7880       3.8158073
       7163.9806       3.6247010
       7165.1732       3.6486985
       7166.3659       3.8081631
       7167.5585       3.8173553
       7168.7511       3.5980551
       7169.9438       3.6369865
       7171.1364       3.5787936
       7172.3290       3.3468579
       7173.5217       3.5730690
       7174.7143       3.6683830
       7175.9070       3.8156988
       7177.0996       3.9024323
       7178.2922       3.5748073
       7179.4849       3.8029903
       7180.6775       3.5485469
       7181.8701       3.7826358
       7183.0628       3.9672549
       7184.2554       3.6897388
       7185.4480       3.7754394
       7186.6407       3.7604476
       7187.8333       3.5574095
       7189.0259       3.7146386
       7190.2186       3.5897103
       7191.4112       3.8851479
       7192.6038       3.8142945
       7193.7965       3.6037816
       7194.9891       3.6831578
       7196.1817       3.7192803
       7197.3744       3.7885180
       7198.5670       3.6999744
       7199.7596       3.7670403
       7200.9523       3.7222823
       7202.1449       3.9545912
       7203.3375       3.7197051
       7204.5302       3.7378255
       7205.7228       3.7874193
       7206.9154       3.5051713
       7208.1081       3.8476496
       7209.3007       3.9093201
       7210.4933       3.6824285
       7211.6860       3.9094055
       7212.8786       3.6835780
       7214.0712       3.7125028
       7215.2639       3.9755502
       7216.4565       3.6489477
       7217.6491       3.8642081
       7218.8418       3.5701833
       7220.0344       3.7271137
       7221.2270       3.5631903
       7222.4197       3.2711028
       7223.6123       3.5800122
       7224.8049       3.5674996
       7225.9976       3.5414386
       7227.1902       3.4882357
       7228.3828       3.2644055
       7229.5755       3.3336070
       7230.7681       3.2672335
       7231.9607       3.3307686
       7233.1534       3.2973319
       7234.3460       3.3280612
       7235.5386       3.2724529
       7236.7313       3.5272477
       7237.9239       3.8301030
       7239.1165       3.3699649
       7240.3092       3.8760532
       7241.5018       3.7931756
       7242.6944       3.8100060
       7243.8871       3.9085929
       7245.0797       3.6590304
       7246.2723       3.6375014
       7247.4650       3.8366889
       7248.6576       4.0122930
       7249.8502       3.6097409
       7251.0429       3.7194675
       7252.2355       3.8403972
       7253.4281       3.6483580
       7254.6208       3.6266775
       7255.8134       3.9101139
       7257.0060       3.7960580
       7258.1987       3.6327761
       7259.3913       3.2678713
       7260.5839       3.3413828
       7261.7766       3.6218808
       7262.9692       3.3279962
       7264.1618       3.5748498
       7265.3545       3.6569296
       7266.5471       3.5139964
       7267.7397       3.6922926
       7268.9324       3.7121137
       7270.1250       3.6805251
       7271.3176       3.6405884
       7272.5103       3.6270245
       7273.7029       3.6211094
       7274.8955       3.7091374
       7276.0882       3.9558987
       7277.2808       3.8586766
       7278.4734       3.5848841
       7279.6661       3.7790367
       7280.8587       3.9240812
       7282.0513       4.0288451
       7283.2440       3.8886416
       7284.4366       3.9710978
       7285.6292       3.8832074
       7286.8219       3.7019199
       7288.0145       3.8274541
       7289.2071       3.6793450
       7290.3998       3.7236217
       7291.5924       3.7958446
       7292.7850       3.8492852
       7293.9777       3.5110871
       7295.1703       3.8904732
       7296.3629       3.6915901
       7297.5556       3.8855294
       7298.7482       3.4594950
       7299.9408       3.6416295
       7301.1335       3.6998799
       7302.3261       3.6245099
       7303.5187       3.5359696
       7304.7114       3.4342388
       7305.9040       3.6039009
       7307.0966       3.7943448
       7308.2893       3.6758651
       7309.4819       3.9268962
       7310.6745       3.7450483
       7311.8672       3.6615023
       7313.0598       3.6213533
       7314.2524       3.5691626
       7315.4451       3.6565543
       7316.6377       3.4669055
       7317.8303       3.8999060
       7319.0230       3.9389820
       7320.2156       3.6667232
       7321.4082       3.7147551
       7322.6009       3.7547473
       7323.7935       3.5054499
       7324.9861       3.5737234
       7326.1788       3.6991767
       7327.3714       3.5814518
       7328.5640       3.2450129
       7329.7567       3.5089054
       7330.9493       3.4697836
       7332.1419       3.5579625
       7333.3346       3.9356533
       7334.5272       3.7326281
       7335.7198       4.0310682
       7336.9125       3.8493185
       7338.1051       3.7833742
       7339.2977       3.7847524
       7340.4904       3.9239095
       7341.6830       3.9056520
       7342.8756       3.6843185
       7344.0683       3.8821465
       7345.2609       3.7894103
       7346.4536       3.5296277
       7347.6462       3.5952567
       7348.8388       3.8089814
       7350.0315       3.8556783
       7351.2241       3.7699923
       7352.4167       3.8717589
       7353.6094       3.6160820
       7354.8020       3.6327610
       7355.9946       3.5547266
       7357.1873       3.5342379
       7358.3799       3.3337506
       7359.5725       3.8798842
       7360.7652       3.6954984
       7361.9578       3.7374341
       7363.1504       3.8503628
       7364.3431       3.7435523
       7365.5357       3.7375101
       7366.7283       3.9979560
       7367.9210       4.3792677
       7369.1136       3.7746835
       7370.3062       3.9015199
       7371.4989       4.0621940
       7372.6915       3.7512143
       7373.8841       3.8165738
       7375.0768       3.9858549
       7376.2694       3.8444767
       7377.4620       4.1125821
       7378.6547       3.8123439
       7379.8473       3.9346746
       7381.0399       4.0942082
       7382.2326       3.8358135
       7383.4252       3.5846273
       7384.6178       3.5668590
       7385.8105       3.7872994
       7387.0031       3.6506567
       7388.1957       3.7465480
       7389.3884       3.5957193
       7390.5810       3.4637544
       7391.7736       3.8912960
       7392.9663       3.7863309
       7394.1589       3.8312993
       7395.3515       3.8357681
       7396.5442       3.7468691
       7397.7368       3.8927521
       7398.9294       3.8825862
       7400.1221       4.0006679
       7401.3147       3.9335722
       7402.5073       3.8895975
       7403.7000       3.9710935
       7404.8926       3.9673639
       7406.0852       3.8585879
       7407.2779       3.8276111
       7408.4705       3.9290834
       7409.6631       3.9388042
       7410.8558       3.9219633
       7412.0484       4.1149470
       7413.2410       3.9898809
       7414.4337       3.8556239
       7415.6263       3.9573114
       7416.8189       3.9363159
       7418.0116       3.8459186
       7419.2042       3.8365132
       7420.3968       3.6947760
       7421.5895       4.2876435
       7422.7821       3.9290990
       7423.9747       3.8513948
       7425.1674       3.8873756
       7426.3600       3.9370461
       7427.5526       3.8020105
       7428.7453       3.8660726
       7429.9379       4.0164833
       7431.1305       3.6582938
       7432.3232       3.8650788
       7433.5158       3.7723303
       7434.7084       4.2328609
       7435.9011       3.8986201
       7437.0937       3.9554790
       7438.2863       4.0072774
       7439.4790       3.9494852
       7440.6716       3.8382248
       7441.8642       4.0987469
       7443.0569       3.8756870
       7444.2495       4.1190340
       7445.4421       4.1730864
       7446.6348       4.0029716
       7447.8274       3.9008703
       7449.0200       4.1656686
       7450.2127       3.8266463
       7451.4053       3.8057144
       7452.5979       3.9146107
       7453.7906       3.7508543
       7454.9832       3.9035497
       7456.1758       4.1114258
       7457.3685       3.8211928
       7458.5611       3.8533030
       7459.7537       3.8503653
       7460.9464       3.5801037
       7462.1390       4.0391596
       7463.3316       3.7101639
       7464.5243       3.8942770
       7465.7169       3.7891647
       7466.9095       3.8776555
       7468.1022       3.7422502
       7469.2948       3.8869573
       7470.4874       3.8142904
       7471.6801       3.8416898
       7472.8727       3.9418801
       7474.0653       3.9923049
       7475.2580       3.7135862
       7476.4506       3.9324134
       7477.6432       3.8772634
       7478.8359       4.0825746
       7480.0285       3.4593415
       7481.2211       3.8456104
       7482.4138       3.9122993
       7483.6064       3.8889541
       7484.7990       3.8863227
       7485.9917       3.9851585
       7487.1843       4.0178794
       7488.3769       4.0979344
       7489.5696       4.0704153
       7490.7622       3.8920871
       7491.9548       4.1545770
       7493.1475       3.9866286
       7494.3401       4.1116325
       7495.5327       3.8079204
       7496.7254       4.0654203
       7497.9180       4.0366767
       7499.1106       3.8521155
       7500.3033       3.8989661
       7501.4959       3.9292709
       7502.6885       3.9922371
       7503.8812       3.8929380
       7505.0738       3.7109577
       7506.2664       3.9113250
       7507.4591       3.9731794
       7508.6517       3.9848634
       7509.8443       3.8330888
       7511.0370       3.8467620
       7512.2296       3.6037338
       7513.4222       3.8018959
       7514.6149       3.6950050
       7515.8075       3.8631334
       7517.0002       3.7873049
       7518.1928       3.8512114
       7519.3854       3.7862037
       7520.5781       4.0319441
       7521.7707       3.8030907
       7522.9633       4.0084410
       7524.1560       4.0519704
       7525.3486       3.8195298
       7526.5412       4.1513363
       7527.7339       4.0332231
       7528.9265       3.6881676
       7530.1191       4.1895260
       7531.3118       3.9946289
       7532.5044       4.1025329
       7533.6970       3.8667666
       7534.8897       4.1090715
       7536.0823       3.9172612
       7537.2749       4.0654398
       7538.4676       4.2549995
       7539.6602       4.0092510
       7540.8528       3.9591496
       7542.0455       4.0534304
       7543.2381       4.0150130
       7544.4307       4.0814315
       7545.6234       4.0438150
       7546.8160       3.8633359
       7548.0086       4.0215635
       7549.2013       4.1408392
       7550.3939       3.8475128
       7551.5865       4.0130382
       7552.7792       3.9166954
       7553.9718       4.1825523
       7555.1644       4.1026103
       7556.3571       3.7440234
       7557.5497       3.4780156
       7558.7423       3.9201688
       7559.9350       3.9189215
       7561.1276       3.7826481
       7562.3202       3.8294634
       7563.5129       3.7401725
       7564.7055       3.5460470
       7565.8981       4.0020802
       7567.0908       4.1710014
       7568.2834       3.8287302
       7569.4760       3.9177690
       7570.6687       3.9389597
       7571.8613       4.0127615
       7573.0539       3.8897927
       7574.2466       3.9789184
       7575.4392       3.8517532
       7576.6318       3.8741364
       7577.8245       3.8810122
       7579.0171       3.6326776
       7580.2097       3.5195396
       7581.4024       3.3938277
       7582.5950       2.9587718
       7583.7876       2.8261105
       7584.9803       2.3401544
       7586.1729       2.2675349
       7587.3655             NaN
       7588.5582             NaN
       7589.7508             NaN
       7590.9434             NaN
       7592.1361             NaN
       7593.3287             NaN
       7594.5213             NaN
       7595.7140             NaN
       7596.9066             NaN
       7598.0992             NaN
       7599.2919             NaN
       7600.4845             NaN
       7601.6771             NaN
       7602.8698             NaN
       7604.0624             NaN
       7605.2550             NaN
       7606.4477             NaN
       7607.6403             NaN
       7608.8329             NaN
       7610.0256             NaN
       7611.2182             NaN
       7612.4108             NaN
       7613.6035             NaN
       7614.7961             NaN
       7615.9887             NaN
       7617.1814             NaN
       7618.3740             NaN
       7619.5666             NaN
       7620.7593             NaN
       7621.9519             NaN
       7623.1445             NaN
       7624.3372             NaN
       7625.5298             NaN
       7626.7224             NaN
       7627.9151             NaN
       7629.1077             NaN
       7630.3003             NaN
       7631.4930             NaN
       7632.6856             NaN
       7633.8782             NaN
       7635.0709             NaN
       7636.2635             NaN
       7637.4561             NaN
       7638.6488             NaN
       7639.8414             NaN
       7641.0340             NaN
       7642.2267             NaN
       7643.4193             NaN
       7644.6119             NaN
       7645.8046             NaN
       7646.9972             NaN
       7648.1898             NaN
       7649.3825             NaN
       7650.5751             NaN
       7651.7677             NaN
       7652.9604             NaN
       7654.1530             NaN
       7655.3456             NaN
       7656.5383             NaN
       7657.7309             NaN
       7658.9235             NaN
       7660.1162             NaN
       7661.3088             NaN
       7662.5014             NaN
       7663.6941             NaN
       7664.8867             NaN
       7666.0793             NaN
       7667.2720             NaN
       7668.4646             NaN
       7669.6572             NaN
       7670.8499             NaN
       7672.0425             NaN
       7673.2351             NaN
       7674.4278             NaN
       7675.6204             NaN
       7676.8130             NaN
       7678.0057             NaN
       7679.1983             NaN
       7680.3909             NaN
       7681.5836             NaN
       7682.7762             NaN
       7683.9688             NaN
       7685.1615             NaN
       7686.3541             NaN
       7687.5468             NaN
       7688.7394             NaN
       7689.9320             NaN
       7691.1247             NaN
       7692.3173       3.7345489
       7693.5099       3.9922584
       7694.7026       3.7134275
       7695.8952       3.8217618
       7697.0878       3.7026316
       7698.2805       3.8682226
       7699.4731       3.2896450
       7700.6657       3.6603713
       7701.8584       3.7530957
       7703.0510       3.4671570
       7704.2436       2.9825264
       7705.4363       3.3275813
       7706.6289       3.3745784
       7707.8215       3.2282432
       7709.0142       3.2619607
       7710.2068       3.2187107
       7711.3994       3.5880825
       7712.5921       3.8231889
       7713.7847       3.5800983
       7714.9773       3.6684368
       7716.1700       3.7957661
       7717.3626       3.9330980
       7718.5552       3.9048603
       7719.7479       4.0466761
       7720.9405       4.1193871
       7722.1331       4.0797791
       7723.3258       4.4144525
       7724.5184       4.5921206
       7725.7110       4.8101833
       7726.9037       4.8273564
       7728.0963       4.5361082
       7729.2889       4.8872774
       7730.4816       4.7960537
       7731.6742       4.6931343
       7732.8668       4.5235455
       7734.0595       4.6981650
       7735.2521       3.8362467
       7736.4447       3.9686984
       7737.6374       3.5704107
       7738.8300       3.7226508
       7740.0226       3.4503159
       7741.2153       3.6240405
       7742.4079       3.2189695
       7743.6005       3.4097402
       7744.7932       3.4950070
       7745.9858       3.4279376
       7747.1784       3.7828818
       7748.3711       3.6160552
       7749.5637       3.4275767
       7750.7563       3.2504702
       7751.9490       3.6083628
       7753.1416       3.6911684
       7754.3342       3.7221924
       7755.5269       3.7843746
       7756.7195       3.9979393
       7757.9121       4.0977213
       7759.1048       3.9200889
       7760.2974       4.0169328
       7761.4900       3.9916245
       7762.6827       3.9602082
       7763.8753       4.0363863
       7765.0679       3.9464880
       7766.2606       3.8618527
       7767.4532       3.7098634
       7768.6458       3.7353519
       7769.8385       3.6768958
       7771.0311       3.6017635
       7772.2237       3.6710175
       7773.4164       3.8030888
       7774.6090       3.6777370
       7775.8016       3.7415914
       7776.9943       3.8016567
       7778.1869       3.8900737
       7779.3795       3.6459987
       7780.5722       3.6729751
       7781.7648       3.6283381
       7782.9574       3.2514775
       7784.1501       3.2224385
       7785.3427       3.3778531
       7786.5353       3.3541285
       7787.7280       3.3974219
       7788.9206       3.7595399
       7790.1132       3.7600361
       7791.3059       3.9314330
       7792.4985       3.9623673
       7793.6911       3.6761106
       7794.8838       3.6483618
       7796.0764       3.7345523
       7797.2690       3.9070311
       7798.4617       3.7216928
       7799.6543       3.6308096
       7800.8469       3.7004790
       7802.0396       3.5231487
       7803.2322       3.8785489
       7804.4248       3.7355072
       7805.6175       3.9569414
       7806.8101       3.7156804
       7808.0027       3.5236842
       7809.1954       3.5598248
       7810.3880       3.1621929
       7811.5806       3.3524466
       7812.7733       3.2211188
       7813.9659       3.3854174
       7815.1585       3.6519410
       7816.3512       3.5827328
       7817.5438       3.5244577
       7818.7364       3.7867022
       7819.9291       3.7263450
       7821.1217       3.7970913
       7822.3143       3.7631101
       7823.5070       3.8866385
       7824.6996       3.7558347
       7825.8922       3.7889107
       7827.0849       3.7018023
       7828.2775       3.5348718
       7829.4701       3.7311175
       7830.6628       3.7333454
       7831.8554       3.4095303
       7833.0480       3.5144884
       7834.2407       3.6612463
       7835.4333       3.6883807
       7836.6259       3.9107061
       7837.8186       3.7870828
       7839.0112       3.3444982
       7840.2038       3.7103907
       7841.3965       3.3754918
       7842.5891       3.5199361
       7843.7817       3.0400866
       7844.9744       2.9467381
       7846.1670       3.5320562
       7847.3596       3.3029879
       7848.5523       3.1501448
       7849.7449       3.4115360
       7850.9375       3.5184467
       7852.1302       3.3480864
       7853.3228       3.6889512
       7854.5155       3.5439996
       7855.7081       3.6858835
       7856.9007       3.4809809
       7858.0934       3.5198264
       7859.2860       3.7994128
       7860.4786       3.6395172
       7861.6713       3.5756789
       7862.8639       3.2227587
       7864.0565       3.6026792
       7865.2492       3.7084009
       7866.4418       3.7451094
       7867.6344       3.4974571
       7868.8271       3.6319614
       7870.0197       3.2414133
       7871.2123       3.3050314
       7872.4050       3.5746843
       7873.5976       3.5685927
       7874.7902       3.4298218
       7875.9829       3.7683025
       7877.1755       3.6759004
       7878.3681       3.4890513
       7879.5608       3.6847139
       7880.7534       3.2930792
       7881.9460       3.5804942
       7883.1387       3.6670892
       7884.3313       3.5914836
       7885.5239       3.7397199
       7886.7166       3.6694298
       7887.9092       3.5147673
       7889.1018       3.9509149
       7890.2945       3.9053618
       7891.4871       3.8872595
       7892.6797       3.9387423
       7893.8724       3.9290120
       7895.0650       3.6555255
       7896.2576       3.5193784
       7897.4503       3.6519912
       7898.6429       3.6414421
       7899.8355       3.7951675
       7901.0282       3.3507433
       7902.2208       3.3756380
       7903.4134       3.1360211
       7904.6061       3.3744289
       7905.7987       3.4398466
       7906.9913       3.3079160
       7908.1840       3.1730587
       7909.3766       3.2530702
       7910.5692       3.3248664
       7911.7619       3.3473159
       7912.9545       3.5993414
       7914.1471       3.4190337
       7915.3398       3.3015506
       7916.5324       3.9120254
       7917.7250       5.7528377
       7918.9177       5.7021869
       7920.1103       4.5875866
       7921.3029       3.6169380
       7922.4956       3.5866767
       7923.6882       3.7919750
       7924.8808       3.8559620
       7926.0735       3.5895597
       7927.2661       3.8876637
       7928.4587       3.6831162
       7929.6514       3.8311668
       7930.8440       3.7454525
       7932.0366       3.8258353
       7933.2293       3.7201405
       7934.4219       3.7364626
       7935.6145       3.6169285
       7936.8072       3.6550802
       7937.9998       3.9531009
       7939.1924       3.5674212
       7940.3851       3.5553298
       7941.5777       3.8567282
       7942.7703       3.6205587
       7943.9630       3.6945993
       7945.1556       4.1044089
       7946.3482       3.9353468
       7947.5409       3.8716701
       7948.7335       3.7679262
       7949.9261       3.8698246
       7951.1188       3.5523693
       7952.3114       3.4901862
       7953.5040       3.1908137
       7954.6967       3.1794860
       7955.8893       3.2562552
       7957.0819       2.6045034
       7958.2746       3.3837653
       7959.4672       3.1613842
       7960.6598       3.7040879
       7961.8525       3.6466587
       7963.0451       3.6209705
       7964.2377       3.8248695
       7965.4304       3.5621035
       7966.6230       3.5909134
       7967.8156       3.8237611
       7969.0083       3.7028719
       7970.2009       3.4264229
       7971.3935       3.3553970
       7972.5862       3.6489937
       7973.7788       3.4985140
       7974.9714       3.5454900
       7976.1641       3.6366649
       7977.3567       3.6726866
       7978.5493       3.7751243
       7979.7420       3.5534234
       7980.9346       3.1103334
       7982.1272       3.0282768
       7983.3199       3.6476195
       7984.5125       3.2688918
       7985.7051       3.0269540
       7986.8978       3.3733104
       7988.0904       3.4455774
       7989.2830       3.7990357
       7990.4757       3.2467702
       7991.6683       3.7521830
       7992.8609       3.8346050
       7994.0536       3.7895825
       7995.2462       3.6774541
       7996.4388       3.9502640
       7997.6315       3.6754709
       7998.8241       3.7012036
       8000.0167       3.6844058
       8001.2094       3.9060886
       8002.4020       3.8371965
       8003.5946       3.6138751
       8004.7873       3.7500927
       8005.9799       3.6354730
       8007.1725       3.7289552
       8008.3652       3.8135534
       8009.5578       3.7228769
       8010.7504       3.8612936
       8011.9431       3.5505470
       8013.1357       3.5012906
       8014.3283       3.5776914
       8015.5210       3.5495775
       8016.7136       3.3790849
       8017.9062       3.2537436
       8019.0989       3.4202715
       8020.2915       3.3970670
       8021.4841       3.3844883
       8022.6768       3.6461476
       8023.8694       4.2047425
       8025.0621       4.4368873
       8026.2547       4.6967671
       8027.4473       4.1343479
       8028.6400       3.5713310
       8029.8326       3.5445155
       8031.0252       3.4822983
       8032.2179       3.7641044
       8033.4105       3.8226875
       8034.6031       3.5945532
       8035.7958       3.6361376
       8036.9884       3.7764788
       8038.1810       3.9383308
       8039.3737       3.7452581
       8040.5663       3.7691264
       8041.7589       3.5801313
       8042.9516       3.5034328
       8044.1442       4.0271193
       8045.3368       3.7017889
       8046.5295       3.7950785
       8047.7221       3.8223465
       8048.9147       3.5424606
       8050.1074       3.9623096
       8051.3000       3.7593931
       8052.4926       3.6841814
       8053.6853       3.5191154
       8054.8779       3.3039702
       8056.0705       3.5495941
       8057.2632       3.4066239
       8058.4558       3.6000962
       8059.6484       3.8084015
       8060.8411       3.5395478
       8062.0337       3.7342835
       8063.2263       3.6460178
       8064.4190       3.8001696
       8065.6116       3.6176280
       8066.8042       3.9847436
       8067.9969       3.8515071
       8069.1895       3.7195982
       8070.3821       3.7894981
       8071.5748       3.8895884
       8072.7674       3.8664440
       8073.9600       4.0508271
       8075.1527       3.9744393
       8076.3453       3.7056353
       8077.5379       3.8984595
       8078.7306       3.7991859
       8079.9232       3.8855652
       8081.1158       3.7358827
       8082.3085       3.7832603
       8083.5011       3.8545758
       8084.6937       3.6965802
       8085.8864       3.6060104
       8087.0790       3.8476189
       8088.2716       3.7346630
       8089.4643       3.6553738
       8090.6569       3.6752859
       8091.8495       3.7693182
       8093.0422       3.5830158
       8094.2348       3.6226345
       8095.4274       3.7274840
       8096.6201       3.8296202
       8097.8127       3.7990851
       8099.0053       4.0702395
       8100.1980       3.6972747
       8101.3906       3.7757463
       8102.5832       3.6727717
       8103.7759       3.6957680
       8104.9685       3.8209693
       8106.1611       3.5610668
       8107.3538       3.6610715
       8108.5464       3.8862515
       8109.7390       3.7350510
       8110.9317       3.7848998
       8112.1243       3.7531520
       8113.3169       3.9017552
       8114.5096       4.0057229
       8115.7022       3.6810999
       8116.8948       3.9285846
       8118.0875       3.6413191
       8119.2801       3.7237223
       8120.4727       3.8081166
       8121.6654       3.6723427
       8122.8580       3.6167225
       8124.0506       3.6962599
       8125.2433       3.9144973
       8126.4359       3.9743292
       8127.6285       3.8197591
       8128.8212       3.6470956
       8130.0138       3.6535013
       8131.2064       3.4616874
       8132.3991       3.5242471
       8133.5917       3.6906627
       8134.7843       4.4948917
       8135.9770       5.8515310
       8137.1696       5.8404726
       8138.3622       4.2431052
       8139.5549       3.7841228
       8140.7475       3.6456632
       8141.9401       3.7124696
       8143.1328       3.7272911
       8144.3254       3.7057867
       8145.5180       3.4642677
       8146.7107       3.6862386
       8147.9033       3.9006352
       8149.0959       3.7035631
       8150.2886       3.8955058
       8151.4812       3.5948922
       8152.6738       3.6043278
       8153.8665       3.6744052
       8155.0591       3.7242812
       8156.2517       3.7141676
       8157.4444       3.5627605
       8158.6370       3.6012854
       8159.8296       3.6635692
       8161.0223       3.7163797
       8162.2149       3.6851538
       8163.4075       3.6733395
       8164.6002       3.8156027
       8165.7928       3.4858399
       8166.9854       3.6510627
       8168.1781       3.3872352
       8169.3707       3.8298866
       8170.5633       3.6937940
       8171.7560       3.6018735
       8172.9486       3.3522701
       8174.1412       3.7567300
       8175.3339       3.4318199
       8176.5265       3.7031268
       8177.7191       3.6815534
       8178.9118       3.6347762
       8180.1044       3.6017278
       8181.2970       3.6813969
       8182.4897       4.0238717
       8183.6823       4.1278731
       8184.8749       4.2886122
       8186.0676       4.3170592
       8187.2602       4.2786821
       8188.4528       3.7625516
       8189.6455       3.5391099
       8190.8381       3.5577863
       8192.0307       3.7735364
       8193.2234       3.5865194
       8194.4160       3.6958889
       8195.6087       3.6730065
       8196.8013       3.8232089
       8197.9939       3.6970421
       8199.1866       3.8426286
       8200.3792       3.7289124
       8201.5718       3.8879934
       8202.7645       3.8371291
       8203.9571       3.6430742
       8205.1497       3.7976920
       8206.3424       3.6669004
       8207.5350       3.8251171
       8208.7276       3.7528662
       8209.9203       3.4848425
       8211.1129       3.8613000
       8212.3055       3.7716420
       8213.4982       3.4378970
       8214.6908       3.5064206
       8215.8834       3.5741038
       8217.0761       3.7024609
       8218.2687       3.5710277
       8219.4613       3.5292535
       8220.6540       3.5075121
       8221.8466       3.8259474
       8223.0392       3.5122309
       8224.2319       3.8175609
       8225.4245       3.6341927
       8226.6171       3.9294539
       8227.8098       3.7396642
       8229.0024       3.8892019
       8230.1950       3.8958149
       8231.3877       3.6195852
       8232.5803       3.7261940
       8233.7729       3.6342543
       8234.9656       3.8242940
       8236.1582       3.8133017
       8237.3508       3.7444776
       8238.5435       3.6882531
       8239.7361       3.8009345
       8240.9287       3.6942531
       8242.1214       3.9516725
       8243.3140       3.7437216
       8244.5066       3.7306633
       8245.6993       3.8663315
       8246.8919       3.5930113
       8248.0845       3.7778132
       8249.2772       3.8296449
       8250.4698       3.7290560
       8251.6624       3.6590663
       8252.8551       3.7503982
       8254.0477       3.6783591
       8255.2403       3.9895272
       8256.4330       3.8771135
       8257.6256       3.8503608
       8258.8182       3.7046259
       8260.0109       3.8617317
       8261.2035       3.7257742
       8262.3961       3.6284824
       8263.5888       4.5498018
       8264.7814       5.2261500
       8265.9740       5.8109678
       8267.1667       5.5858102
       8268.3593       4.6845028
       8269.5519       3.4673546
       8270.7446       3.2546755
       8271.9372       3.2354613
       8273.1298       3.1939891
       8274.3225       3.1319917
       8275.5151       3.2942204
       8276.7077       3.0310372
       8277.9004       5.5244577
       8279.0930       5.6218626
       8280.2856       3.0453966
       8281.4783       3.1873321
       8282.6709       3.4777540
       8283.8635       3.2967028
       8285.0562       3.1718016
       8286.2488       3.0737433
       8287.4414       3.1909847
       8288.6341       2.9776855
       8289.8267       3.2900805
       8291.0193       3.5100866
       8292.2120       3.7131170
       8293.4046       3.6258846
       8294.5972       3.7889932
       8295.7899       3.5176337
       8296.9825       3.7680924
       8298.1751       3.4445239
       8299.3678       3.7173087
       8300.5604       3.5941359
       8301.7530       3.7263070
       8302.9457       3.7230560
       8304.1383       3.8402983
       8305.3309       3.6736334
       8306.5236       3.6502251
       8307.7162       3.7629073
       8308.9088       3.8894734
       8310.1015       3.7646878
       8311.2941       3.5543704
       8312.4867       3.7530683
       8313.6794       3.7897827
       8314.8720       3.7619555
       8316.0646       3.7000387
       8317.2573       3.6119397
       8318.4499       3.5119992
       8319.6425       3.5836008
       8320.8352       3.6081531
       8322.0278       3.5365439
       8323.2204       3.6179823
       8324.4131       3.6909056
       8325.6057       3.8186419
       8326.7983       3.5111044
       8327.9910       3.4895279
       8329.1836       3.3871631
       8330.3762       3.1355302
       8331.5689       2.8559166
       8332.7615       2.4033759
       8333.9541       2.4759058
       8335.1468       3.1434961
       8336.3394       3.1178116
       8337.5320       2.6554122
       8338.7247       3.0626246
       8339.9173       3.1636595
       8341.1099       3.4145525
       8342.3026       3.4804745
       8343.4952       3.4944479
       8344.6878       3.4176431
       8345.8805       3.6887263
       8347.0731       3.3621457
       8348.2657       3.4932500
       8349.4584       3.7127914
       8350.6510       3.6837894
       8351.8436       3.3536525
       8353.0363       3.4726865
       8354.2289       3.6759776
       8355.4215       3.6054244
       8356.6142       3.9517568
       8357.8068       4.3053267
       8358.9994       4.5820959
       8360.1921       4.6818226
       8361.3847       4.9249086
       8362.5774       4.8009730
       8363.7700       4.4887052
       8364.9626       4.1118997
       8366.1553       4.1456804
       8367.3479       3.8875974
       8368.5405       3.4656116
       8369.7332       3.5111076
       8370.9258       3.3417248
       8372.1184       3.2536141
       8373.3111       3.3794820
       8374.5037       3.2893699
       8375.6963       3.6536708
       8376.8890       3.4245339
       8378.0816       3.4906912
       8379.2742       3.6045474
       8380.4669       3.8663643
       8381.6595       3.5608868
       8382.8521       3.5868503
       8384.0448       3.5561287
       8385.2374       3.3069017
       8386.4300       3.1780765
       8387.6227       3.1214462
       8388.8153       3.1906560
       8390.0079       3.2836407
       8391.2006       3.3639668
       8392.3932       3.4194968
       8393.5858       3.1184643
       8394.7785       3.6186668
       8395.9711       3.7102411
       8397.1637       3.6152349
       8398.3564       3.6921965
       8399.5490       3.8260664
       8400.7416       3.7710978
       8401.9343       3.8822533
       8403.1269       3.5111893
       8404.3195       3.2858763
       8405.5122       3.4317702
       8406.7048       3.2576779
       8407.8974       3.7861060
       8409.0901       3.7186000
       8410.2827       3.6984598
       8411.4753       3.5056938
       8412.6680       3.8769360
       8413.8606       3.6216233
       8415.0532       3.3890307
       8416.2459       3.0701824
       8417.4385       2.9036094
       8418.6311       3.0999625
       8419.8238       2.5878751
       8421.0164       3.0791330
       8422.2090       3.4703722
       8423.4017       3.2118336
       8424.5943       3.1411942
       8425.7869       3.3597168
       8426.9796       3.4366966
       8428.1722       3.6635282
       8429.3648       3.6226451
       8430.5575       3.6572808
       8431.7501       3.7249457
       8432.9427       3.6946585
       8434.1354       3.8390422
       8435.3280       3.8311331
       8436.5206       3.6528546
       8437.7133       3.5046615
       8438.9059       3.4988814
       8440.0985       3.5479804
       8441.2912       3.6583178
       8442.4838       3.7890244
       8443.6764       3.7539236
       8444.8691       4.0888177
       8446.0617       4.0133918
       8447.2543       3.8824456
       8448.4470       3.6250959
       8449.6396       3.6672035
       8450.8322       3.4883714
       8452.0249       3.0019742
       8453.2175       3.6639846
       8454.4101       3.1037725
       8455.6028       2.8888784
       8456.7954       3.3138841
       8457.9880       3.3326931
       8459.1807       3.3799565
       8460.3733       3.2374660
       8461.5659       3.5565137
       8462.7586       3.5504657
       8463.9512       3.4024686
       8465.1438       3.8229219
       8466.3365       3.7274235
       8467.5291       3.7981936
       8468.7217       3.7186123
       8469.9144       3.8086649
       8471.1070       3.6368056
       8472.2996       3.8454808
       8473.4923       3.8890088
       8474.6849       4.0821485
       8475.8775       4.1962764
       8477.0702       4.3484362
       8478.2628       4.2191752
       8479.4554       4.0288906
       8480.6481       3.7835526
       8481.8407       3.5955602
       8483.0333       3.0484570
       8484.2260       3.4192903
       8485.4186       3.2274549
       8486.6112       3.1822165
       8487.8039       3.2423752
       8488.9965       2.9726601
       8490.1891       2.9933016
       8491.3818       3.2544161
       8492.5744       2.8975539
       8493.7670       3.0249462
       8494.9597       3.3842856
       8496.1523       2.9645641
       8497.3449       3.4948315
       8498.5376       3.4556315
       8499.7302       3.6013999
       8500.9228       3.5051229
       8502.1155       3.6959739
       8503.3081       3.7010800
       8504.5007       3.5477081
       8505.6934       3.6985220
       8506.8860       3.5807606
       8508.0786       3.6476788
       8509.2713       3.4775216
       8510.4639       3.7524696
       8511.6565       3.6682673
       8512.8492       3.5739034
       8514.0418       3.6813601
       8515.2344       3.6707966
       8516.4271       3.7644035
       8517.6197       3.6648128
       8518.8123       3.7788800
       8520.0050       3.8009503
       8521.1976       3.8095102
       8522.3902       3.7299032
       8523.5829       3.7858322
       8524.7755       3.4245507
       8525.9681       3.4716844
       8527.1608       3.1848985
       8528.3534       2.7102959
       8529.5460       2.6695125
       8530.7387       2.5941991
       8531.9313       2.8261540
       8533.1240       2.8106678
       8534.3166       2.9263445
       8535.5092       3.1502533
       8536.7019       3.0486318
       8537.8945       3.5295470
       8539.0871       3.1939604
       8540.2798       3.3838206
       8541.4724       3.3231605
       8542.6650       3.5540624
       8543.8577       3.6096574
       8545.0503       3.6716008
       8546.2429       3.7225470
       8547.4356       3.6973437
       8548.6282       3.7987856
       8549.8208       3.7347946
       8551.0135       3.7173713
       8552.2061       3.4511726
       8553.3987       3.7246886
       8554.5914       3.6272998
       8555.7840       3.9683374
       8556.9766       3.7634627
       8558.1693       3.6606637
       8559.3619       3.8011596
       8560.5545       3.8062593
       8561.7472       3.6037477
       8562.9398       3.5881748
       8564.1324       3.6609309
       8565.3251       3.6230336
       8566.5177       3.7936623
       8567.7103       3.7704131
       8568.9030       3.7210492
       8570.0956       3.6879998
       8571.2882       3.6558743
       8572.4809       3.7145712
       8573.6735       3.5368415
       8574.8661       3.4335233
       8576.0588       3.6344823
       8577.2514       3.5902875
       8578.4440       3.8437254
       8579.6367       3.6797878
       8580.8293       3.8098099
       8582.0219       3.6391393
       8583.2146       3.6610340
       8584.4072       3.7068729
       8585.5998       3.8740892
       8586.7925       3.9102039
       8587.9851       4.8604370
       8589.1777       5.1790229
       8590.3704       4.9031122
       8591.5630       4.5640193
       8592.7556       4.1149117
       8593.9483       4.0128992
       8595.1409       3.8849721
       8596.3335       3.8909426
       8597.5262       3.5875470
       8598.7188       3.5758142
       8599.9114       3.6747102
       8601.1041       3.8258254
       8602.2967       3.5408457
       8603.4893       3.4403633
       8604.6820       3.2001705
       8605.8746       3.1463814
       8607.0672       3.8440119
       8608.2599       3.2336955
       8609.4525       3.1421510
       8610.6451       3.7897975
       8611.8378       3.9306563
       8613.0304       3.5230905
       8614.2230       3.7769763
       8615.4157       3.2587563
       8616.6083       3.6149961
       8617.8009       3.7113542
       8618.9936       3.5410378
       8620.1862       3.3967073
       8621.3788       3.3687171
       8622.5715       3.6719603
       8623.7641       3.5994808
       8624.9567       3.1198863
       8626.1494       3.5387077
       8627.3420       3.7861003
       8628.5346       3.8234935
       8629.7273       3.7005525
       8630.9199       3.7612700
       8632.1125       3.9140674
       8633.3052       3.6556284
       8634.4978       3.4493609
       8635.6904       3.6398571
       8636.8831       4.1491353
       8638.0757       3.7267851
       8639.2683       3.4700687
       8640.4610       3.4350296
       8641.6536       3.5871380
       8642.8462       3.1713695
       8644.0389       3.4588370
       8645.2315       2.6682093
       8646.4241       2.5329733
       8647.6168       2.8924273
       8648.8094       2.7675905
       8650.0020       2.7969261
       8651.1947       3.2160498
       8652.3873       2.7160471
       8653.5799       2.7162946
       8654.7726       3.0216929
       8655.9652       3.0970883
       8657.1578       3.4988774
       8658.3505       3.4506566
       8659.5431       3.4254865
       8660.7357       3.2597265
       8661.9284       3.2856640
       8663.1210       3.6541703
       8664.3136       3.7017568
       8665.5063       3.6324207
       8666.6989       4.8605137
       8667.8915       5.2684161
       8669.0842       4.8242575
       8670.2768       4.0176506
       8671.4694       3.8371244
       8672.6621       3.6884815
       8673.8547       3.2328723
       8675.0473       3.3267463
       8676.2400       3.2640738
       8677.4326       3.5397597
       8678.6252       3.5708807
       8679.8179       3.7274769
       8681.0105       3.7539609
       8682.2031       3.5279827
       8683.3958       3.8939764
       8684.5884       3.6989595
       8685.7810       3.9166309
       8686.9737       3.9492504
       8688.1663       3.7862432
       8689.3589       3.8484261
       8690.5516       3.8165196
       8691.7442       3.6554474
       8692.9368       3.6351576
       8694.1295       3.8210356
       8695.3221       3.5804888
       8696.5147       3.8119532
       8697.7074       3.9023012
       8698.9000       3.9991483
       8700.0926       3.7073245
       8701.2853       3.9432865
       8702.4779       3.8262140
       8703.6706       3.6214791
       8704.8632       3.8230359
       8706.0558       3.9165488
       8707.2485       3.7209690
       8708.4411       3.8235868
       8709.6337       3.5760249
       8710.8264       3.7046267
       8712.0190       3.7637925
       8713.2116       3.6012144
       8714.4043       3.8569701
       8715.5969       3.8257348
       8716.7895       3.6743924
       8717.9822       3.9773258
       8719.1748       3.8554820
       8720.3674       3.6901175
       8721.5601       3.8045599
       8722.7527       3.5818633
       8723.9453       3.8486869
       8725.1380       3.8399602
       8726.3306       3.6691991
       8727.5232       3.6232588
       8728.7159       4.0074447
       8729.9085       3.7194742
       8731.1011       3.5767962
       8732.2938       3.9384095
       8733.4864       3.9723159
       8734.6790       3.6978069
       8735.8717       3.8760932
       8737.0643       3.8938153
       8738.2569       3.8504921
       8739.4496       4.0031936
       8740.6422       3.8283939
       8741.8348       3.7998465
       8743.0275       3.5686147
       8744.2201       3.5976787
       8745.4127       3.2475863
       8746.6054       2.9533097
       8747.7980       3.4005410
       8748.9906       3.0604111
       8750.1833       2.5927019
       8751.3759       2.7928495
       8752.5685       2.6417087
       8753.7612       2.8024137
       8754.9538       2.9336457
       8756.1464       2.8912520
       8757.3391       3.6438262
       8758.5317       3.0969028
       8759.7243       3.6554896
       8760.9170       3.3713253
       8762.1096       2.9304009
       8763.3022       2.9678687
       8764.4949       2.7148252
       8765.6875       2.6997665
       8766.8801       2.5421067
       8768.0728       3.6987583
       8769.2654       3.6649667
       8770.4580       3.6740557
       8771.6507       3.8707294
       8772.8433       3.8619382
       8774.0359       3.7826075
       8775.2286       3.8089713
       8776.4212       3.7692632
       8777.6138       3.5966407
       8778.8065       3.5220174
       8779.9991       3.7358679
       8781.1917       3.3947084
       8782.3844       3.5801835
       8783.5770       3.9779005
       8784.7696       3.9404325
       8785.9623       3.6798579
       8787.1549       3.5565700
       8788.3475       3.8616563
       8789.5402       3.7797505
       8790.7328       3.6801915
       8791.9254       3.7647991
       8793.1181       3.6377276
       8794.3107       3.5398395
       8795.5033       3.7377487
       8796.6960       3.7412010
       8797.8886       3.7897931
       8799.0812       3.9939754
       8800.2739       3.9110764
       8801.4665       3.8444007
       8802.6591       3.8969632
       8803.8518       4.1018197
       8805.0444       3.9448460
       8806.2370       3.6377116
       8807.4297       3.8706805
       8808.6223       3.8427310
       8809.8149       3.5433308
       8811.0076       3.1504321
       8812.2002       2.1512908
       8813.3928       2.2653919
       8814.5855       2.3384909
       8815.7781       2.1090184
       8816.9707       3.0815014
       8818.1634       3.3193401
       8819.3560       2.8400606
       8820.5486       3.1161858
       8821.7413       3.2605210
       8822.9339       2.9404738
       8824.1265       3.0092898
       8825.3192       3.0322285
       8826.5118       3.6214693
       8827.7044       3.8588698
       8828.8971       3.7243270
       8830.0897       3.6710497
       8831.2823       3.6294559
       8832.4750       3.8932169
       8833.6676       3.8219334
       8834.8602       3.6298199
       8836.0529       3.7659508
       8837.2455       3.5150643
       8838.4381       3.7392189
       8839.6308       3.6572301
       8840.8234       3.7092960
       8842.0160       3.9424074
       8843.2087       3.8472705
       8844.4013       3.9075490
       8845.5939       4.0205944
       8846.7866       3.5859011
       8847.9792       3.9075129
       8849.1718       4.0159230
       8850.3645       3.7725585
       8851.5571       3.5594938
       8852.7497       3.3121110
       8853.9424       3.6613344
       8855.1350       3.4784405
       8856.3276       3.3864127
       8857.5203       4.0189294
       8858.7129       3.9310440
       8859.9055       3.9231009
       8861.0982       3.8063966
       8862.2908       3.8082724
       8863.4834       3.7091512
       8864.6761       3.9882189
       8865.8687       3.6381800
       8867.0613       3.8464779
       8868.2540       3.6434914
       8869.4466       3.6882005
       8870.6392       2.2980074
       8871.8319       2.2679218
       8873.0245       1.9085010
       8874.2172       1.9804013
       8875.4098       3.1270866
       8876.6024       3.2356721
       8877.7951       3.6264003
       8878.9877       3.8508595
       8880.1803       3.7460509
       8881.3730       3.9902360
       8882.5656       3.9989038
       8883.7582       3.7654878
       8884.9509       3.5937879
       8886.1435       4.1271875
       8887.3361       3.3432342
       8888.5288       3.0763811
       8889.7214       3.0906557
       8890.9140       2.8851862
       8892.1067       3.8179885
       8893.2993       3.4542844
       8894.4919       3.8174878
       8895.6846       3.6731200
       8896.8772       4.0314419
       8898.0698       3.8516372
       8899.2625       3.8130314
       8900.4551       3.8409235
       8901.6477       3.9263302
       8902.8404       3.3704871
       8904.0330       2.2003697
       8905.2256       1.9397634
       8906.4183       1.5897569
       8907.6109       2.4934814
       8908.8035       3.1677867
       8909.9962       2.8882742
       8911.1888       3.4436738
       8912.3814       3.7054166
       8913.5741       3.8205999
       8914.7667       4.0013184
       8915.9593       3.8151713
       8917.1520       3.7198363
       8918.3446       3.9385662
       8919.5372       3.8321931
       8920.7299       3.8398005
       8921.9225       3.8372248
       8923.1151       3.8150741
       8924.3078       3.8657281
       8925.5004       3.7307772
       8926.6930       3.4020671
       8927.8857       3.2370396
       8929.0783       3.3493161
       8930.2709       3.2637983
       8931.4636       3.1323701
       8932.6562       3.2908302
       8933.8488       3.7394409
       8935.0415       3.8111992
       8936.2341       4.0079957
       8937.4267       4.0203150
       8938.6194       3.9088174
       8939.8120       3.6583470
       8941.0046       3.5300247
       8942.1973       3.6175349
       8943.3899       3.1154194
       8944.5825       2.6482883
       8945.7752       3.2410744
       8946.9678       3.4218582
       8948.1604       2.9798333
       8949.3531       3.2516213
       8950.5457       4.0150957
       8951.7383       4.0756515
       8952.9310       3.9917518
       8954.1236       3.8671904
       8955.3162       3.7817506
       8956.5089       3.7639589
       8957.7015       3.9091611
       8958.8941       3.7734929
       8960.0868       3.9424745
       8961.2794       3.9151593
       8962.4720       3.8628879
       8963.6647       4.1021382
       8964.8573       3.7776313
       8966.0499       3.9898129
       8967.2426       3.8833864
       8968.4352       3.8062354
       8969.6278       3.9612394
       8970.8205       3.7304238
       8972.0131       3.3200968
       8973.2057       3.0557198
       8974.3984       2.9570339
       8975.5910       3.5014360
       8976.7836       3.2116326
       8977.9763       3.6672809
       8979.1689       3.8520754
       8980.3615       3.7343281
       8981.5542       3.7105762
       8982.7468       3.4772946
       8983.9394       3.2912382
       8985.1321       3.0515539
       8986.3247       3.1453947
       8987.5173       3.1527704
       8988.7100       3.7403077
       8989.9026       3.3658783
       8991.0952       3.8704172
       8992.2879       3.8406311
       8993.4805       3.8485464
       8994.6731       3.7337744
       8995.8658       3.9794700
       8997.0584       4.0291987
       8998.2510       3.8030322
       8999.4437       4.0359315
       9000.6363       3.6426310
       9001.8289       3.7099096
       9003.0216       4.0914621
       9004.2142       3.8791129
       9005.4068       3.8417803
       9006.5995       4.0342271
       9007.7921       3.7168215
       9008.9847       3.8293522
       9010.1774       3.7793114
       9011.3700       3.9567207
       9012.5626       4.2074750
       9013.7553       4.0343841
       9014.9479       3.9541830
       9016.1405       4.0971449
       9017.3332       3.9641850
       9018.5258       4.0881707
       9019.7184       3.8564273
       9020.9111       4.2617428
       9022.1037       3.7572918
       9023.2963       3.6251293
       9024.4890       3.7976325
       9025.6816       3.8367913
       9026.8742       4.0917850
       9028.0669       3.9923996
       9029.2595       4.0319943
       9030.4521       4.2763015
       9031.6448       4.2092491
       9032.8374       3.8519026
       9034.0300       3.5601847
       9035.2227       3.7319857
       9036.4153       3.6934109
       9037.6079       3.4738519
       9038.8006       3.7586196
       9039.9932       3.7725853
       9041.1859       4.1102409
       9042.3785       4.2187266
       9043.5711       4.0624460
       9044.7638       4.0659933
       9045.9564       4.2548813
       9047.1490       3.9835132
       9048.3417       4.3371170
       9049.5343       4.1023008
       9050.7269       4.2047197
       9051.9196       3.9885415
       9053.1122       3.9817528
       9054.3048       3.7820303
       9055.4975       3.7735378
       9056.6901       4.1452987
       9057.8827       3.9120853
       9059.0754       3.9523471
       9060.2680       4.0721368
       9061.4606       4.0960808
       9062.6533       4.1716683
       9063.8459       3.8697687
       9065.0385       4.0144828
       9066.2312       3.8948440
       9067.4238       4.0610298
       9068.6164       4.2440348
       9069.8091       4.0153091
       9071.0017       3.9125144
       9072.1943       3.8865390
       9073.3870       4.0940806
       9074.5796       3.9916817
       9075.7722       3.8377263
       9076.9649       4.1869767
       9078.1575       4.0168932
       9079.3501       4.0445613
       9080.5428       4.2597981
       9081.7354       3.8998512
       9082.9280       3.9081774
       9084.1207       3.8601398
       9085.3133       3.6978556
       9086.5059       3.8404011
       9087.6986       3.9312903
       9088.8912       3.8100161
       9090.0838       4.1140679
       9091.2765       4.1083820
       9092.4691       3.8359444
       9093.6617       4.2868084
       9094.8544       4.1199542
       9096.0470       4.3432323
       9097.2396       4.4794617
       9098.4323       4.1325538
       9099.6249       4.1451094
       9100.8175       4.0916177
       9102.0102       3.9239376
       9103.2028       4.2878913
       9104.3954       4.1689494
       9105.5881       4.4869152
       9106.7807       4.0330464
       9107.9733       4.1225078
       9109.1660       4.3074817
       9110.3586       4.4574312
       9111.5512       4.1512071
       9112.7439       4.2181861
       9113.9365       4.1488262
       9115.1291       4.3499682
       9116.3218       3.9300203
       9117.5144       3.8084708
       9118.7070       4.0793762
       9119.8997       3.9346617
       9121.0923       4.0493427
       9122.2849       4.2643715
       9123.4776       4.3528299
       9124.6702       3.9523136
       9125.8628       4.2729298
       9127.0555       4.5526400
       9128.2481       4.3522271
       9129.4407       4.3733782
       9130.6334       4.3407844
       9131.8260       4.3229492
       9133.0186       4.3164478
       9134.2113       4.0230937
       9135.4039       4.1948439
       9136.5965       4.0388565
       9137.7892       3.9820792
       9138.9818       4.0569406
       9140.1744       4.1237987
       9141.3671       4.0187565
       9142.5597       3.9741176
       9143.7523       4.1843364
       9144.9450       3.9608347
       9146.1376       3.9050915
       9147.3302       4.1484477
       9148.5229       4.1363939
       9149.7155       3.9416747
       9150.9081       4.2419373
       9152.1008       4.3287272
       9153.2934       4.2507039
       9154.4860       4.1274172
       9155.6787       4.1811905
       9156.8713       4.0404447
       9158.0639       4.0561866
       9159.2566       4.0528533
       9160.4492       4.1821898
       9161.6418       4.2458445
       9162.8345       4.4206265
       9164.0271       4.1772133
       9165.2197       4.6515117
       9166.4124       4.6154578
       9167.6050       4.2826811
       9168.7976       4.3745503
       9169.9903       4.1554445
       9171.1829       4.4449294
       9172.3755       4.1073667
       9173.5682       4.3520573
       9174.7608       4.1934662
       9175.9534       4.1866644
       9177.1461       4.1642510
       9178.3387       3.9787349
       9179.5313       4.3261111
       9180.7240       4.4876025
       9181.9166       4.3034148
       9183.1092       4.1167077
       9184.3019       4.1259493
       9185.4945       4.4222845
       9186.6871       4.2666976
       9187.8798       4.2083805
       9189.0724       4.4530309
       9190.2650       4.2570748
       9191.4577       4.3023622
       9192.6503       4.1217866
       9193.8429       4.0947096
       9195.0356       4.2702795
       9196.2282       4.2470797
       9197.4208       4.2257230
       9198.6135       4.0215428
       9199.8061       4.1472766
       9200.9987       4.2233046
       9202.1914       4.3137390
       9203.3840       4.3657522
       9204.5766       4.1672416
       9205.7693       4.3481738
       9206.9619       4.2341950
       9208.1545       4.5358458
       9209.3472       4.2174659
       9210.5398       4.3884133
       9211.7325       4.4144006
       9212.9251       4.2931783
       9214.1177       4.3705334
       9215.3104       4.1268531
       9216.5030       4.1406153
       9217.6956       4.4035170
       9218.8883       4.3106140
       9220.0809       4.3896271
       9221.2735       4.3323936
       9222.4662       4.2216512
       9223.6588       4.4203896
       9224.8514       4.2337277
       9226.0441       4.5314686
       9227.2367       4.4379007
       9228.4293       4.3724784
       9229.6220       4.3400640
       9230.8146       4.2522769
       9232.0072       4.4117657
       9233.1999       4.0378094
       9234.3925       4.4339920
       9235.5851       4.3286172
       9236.7778       4.3055826
       9237.9704       4.1202918
       9239.1630       4.5262362
       9240.3557       4.4650064
       9241.5483       4.4729371
       9242.7409       4.3940606
       9243.9336       4.5528443
       9245.1262       4.6347108
       9246.3188       4.4189058
       9247.5115       4.4968240
       9248.7041       4.3733617
       9249.8967       4.2795841
       9251.0894       4.3896050
       9252.2820       4.7182711
       9253.4746       4.2240232
       9254.6673       4.2038732
       9255.8599       4.3079016
       9257.0525       4.5232945
       9258.2452       4.4625306
       9259.4378       4.3737439
       9260.6304       4.4665202
       9261.8231       4.3687388
       9263.0157       4.0644018
       9264.2083       4.1771557
       9265.4010       4.3150524
       9266.5936       4.2848330
       9267.7862       4.4967187
       9268.9789       4.5081535
       9270.1715       3.7711713
       9271.3641       4.4527327
       9272.5568       4.3904755
       9273.7494       4.0277134
       9274.9420       4.3487900
       9276.1347       4.2013340
       9277.3273       4.1888692
       9278.5199       4.0480223
       9279.7126       4.1717779
       9280.9052       4.1139002
       9282.0978       4.2874981
       9283.2905       4.1472361
       9284.4831       4.1238185
       9285.6757       4.0127278
       9286.8684       3.5707415
       9288.0610       3.6840717
       9289.2536       2.8225566
       9290.4463       2.2047661
       9291.6389       1.7802376
       9292.8315       2.3113085
       9294.0242       1.6095582
       9295.2168       2.9977659
       9296.4094       1.8098303
       9297.6021       2.3635050
       9298.7947       1.9494833
       9299.9873       3.0242548
       9301.1800       3.0648975
       9302.3726       2.8118355
       9303.5652       2.7214395
       9304.7579       2.7279082
       9305.9505       2.6088250
       9307.1431       2.8072659
       9308.3358       2.6560514
       9309.5284       3.1818251
       9310.7210       3.2705934
       9311.9137       3.4934030
       9313.1063       3.8049351
       9314.2989       3.2513847
       9315.4916       3.3251394
       9316.6842       3.1595598
       9317.8768       3.5092595
       9319.0695       3.5103463
       9320.2621       3.5480644
       9321.4547       3.4545993
       9322.6474       3.3689056
       9323.8400       2.6632622
       9325.0326       2.5615558
       9326.2253       2.9053346
       9327.4179       3.0390828
       9328.6105       3.2848006
       9329.8032       3.2768534
       9330.9958       4.1796085
       9332.1884       4.1756675
       9333.3811       3.4223096
       9334.5737       3.3208228
       9335.7663       3.5417576
       9336.9590       3.2006736
       9338.1516       2.9028214
       9339.3442       3.1373918
       9340.5369       3.0955868
       9341.7295       3.4475479
       9342.9221       3.6452485
       9344.1148       3.6800476
       9345.3074       3.9531202
       9346.5000       3.7247058
       9347.6927       3.2762592
       9348.8853       3.3087989
       9350.0779       3.5381008
       9351.2706       3.1249466
       9352.4632       2.9896888
       9353.6558       3.0318716
       9354.8485       3.4789133
       9356.0411       2.2320378
       9357.2337       1.4487474
       9358.4264       2.1166688
       9359.6190       2.2258627
       9360.8116       2.0233558
       9362.0043       2.5508343
       9363.1969       3.0210249
       9364.3895       3.6758897
       9365.5822       4.7784378
       9366.7748       4.3929471
       9367.9674       4.8038400
       9369.1601       4.2295804
       9370.3527       3.7674866
       9371.5453       3.6572391
       9372.7380       4.3550505
       9373.9306       4.2050651
       9375.1232       4.2639820
       9376.3159       4.4677405
       9377.5085       4.3844664
       9378.7011       4.2967881
       9379.8938       4.0514552
       9381.0864       3.8471460
       9382.2791       3.4709169
       9383.4717       3.6903635
       9384.6643       3.7370994
       9385.8570       3.9453245
       9387.0496       3.8247359
       9388.2422       3.9569453
       9389.4349       3.7809780
       9390.6275       4.0178944
       9391.8201       3.7566370
       9393.0128       4.0776606
       9394.2054       3.8880104
       9395.3980       3.8056390
       9396.5907       3.8793727
       9397.7833       3.6652626
       9398.9759       3.5209525
       9400.1686       2.9561404
       9401.3612       3.4999246
       9402.5538       3.1866009
       9403.7465       2.9422160
       9404.9391       3.8366917
       9406.1317       3.7614796
       9407.3244       3.4310664
       9408.5170       2.9728101
       9409.7096       3.3052011
       9410.9023       3.2626026
       9412.0949       3.4927331
       9413.2875       3.9106249
       9414.4802       4.1019080
       9415.6728       3.9463841
       9416.8654       3.8504322
       9418.0581       3.6324304
       9419.2507       3.0630256
       9420.4433       2.0994874
       9421.6360       1.8423114
       9422.8286       2.5930584
       9424.0212       2.3543846
       9425.2139       3.8622161
       9426.4065       3.7978277
       9427.5991       3.7483153
       9428.7918       4.1008797
       9429.9844       4.3469589
       9431.1770       4.1479252
       9432.3697       4.0155411
       9433.5623       3.7574735
       9434.7549       3.5539129
       9435.9476       3.5525610
       9437.1402       3.1366089
       9438.3328       2.4977976
       9439.5255       1.8597473
       9440.7181       2.2294086
       9441.9107       1.7787105
       9443.1034       2.7577365
       9444.2960       3.3152830
       9445.4886       3.7923918
       9446.6813       3.7573497
       9447.8739       3.8883404
       9449.0665       4.0700986
       9450.2592       3.8709482
       9451.4518       4.3902943
       9452.6444       4.2793153
       9453.8371       4.0230653
       9455.0297       3.2135018
       9456.2223       1.5608557
       9457.4150       2.5646593
       9458.6076       2.1000343
       9459.8002       2.9550694
       9460.9929       2.8935927
       9462.1855       2.6216518
       9463.3781       3.3526466
       9464.5708       3.6619375
       9465.7634       3.7166063
       9466.9560       3.9132031
       9468.1487       4.2237060
       9469.3413       4.2057844
       9470.5339       4.4323599
       9471.7266       4.1919126
       9472.9192       4.0390830
       9474.1118       3.7810365
       9475.3045       3.8579767
       9476.4971       3.5400365
       9477.6897       3.5246887
       9478.8824       3.4546317
       9480.0750       3.1395100
       9481.2676       2.8901074
       9482.4603       2.1076244
       9483.6529       2.5346957
       9484.8455       2.7498707
       9486.0382       3.2306795
       9487.2308       3.9565437
       9488.4234       4.3669831
       9489.6161       4.0581951
       9490.8087       4.4556924
       9492.0013       4.3826003
       9493.1940       4.3037807
       9494.3866       4.1302586
       9495.5792       3.7628098
       9496.7719       3.4124076
       9497.9645       2.8391826
       9499.1571       3.9136201
       9500.3498       3.7421362
       9501.5424       3.6786632
       9502.7350       3.5936976
       9503.9277       4.0072234
       9505.1203       3.7741437
       9506.3129       3.8083884
       9507.5056       3.8183020
       9508.6982       3.9328004
       9509.8908       3.9983876
       9511.0835       4.2236733
       9512.2761       4.2816977
       9513.4687       4.0790316
       9514.6614       3.9822773
       9515.8540       4.0782732
       9517.0466       3.9913755
       9518.2393       4.0522968
       9519.4319       4.0279639
       9520.6245       4.4393091
       9521.8172       3.9799582
       9523.0098       3.7107239
       9524.2024       3.7245666
       9525.3951       3.7151466
       9526.5877       4.0594412
       9527.7803       3.8893650
       9528.9730       3.8466012
       9530.1656       3.8354472
       9531.3582       4.1075295
       9532.5509       3.5857087
       9533.7435       3.8494257
       9534.9361       3.6766888
       9536.1288       3.5719354
       9537.3214       3.5433690
       9538.5140       4.0511626
       9539.7067       4.0727577
       9540.8993       4.3341462
       9542.0919       4.2238281
       9543.2846       3.7643238
       9544.4772       3.5393964
       9545.6698       3.6492186
       9546.8625       2.6318005
       9548.0551       2.8439687
       9549.2478       2.9653834
       9550.4404       3.0311052
       9551.6330       3.8697068
       9552.8257       4.0440517
       9554.0183       4.4439482
       9555.2109       4.6478193
       9556.4036       4.2355073
       9557.5962       4.6257192
       9558.7888       4.2202911
       9559.9815       4.1147728
       9561.1741       4.0436734
       9562.3667       4.3403784
       9563.5594       4.1727379
       9564.7520       4.3047967
       9565.9446       4.3148873
       9567.1373       4.0434137
       9568.3299       3.9806896
       9569.5225       4.1631564
       9570.7152       4.1293522
       9571.9078       4.0132500
       9573.1004       3.8234600
       9574.2931       4.0287830
       9575.4857       3.9920000
       9576.6783       4.2953086
       9577.8710       4.2633868
       9579.0636       3.9490426
       9580.2562       4.1178272
       9581.4489       4.5566036
       9582.6415       4.4219563
       9583.8341       4.0488566
       9585.0268       4.2061744
       9586.2194       4.0329730
       9587.4120       3.8823348
       9588.6047       3.2028628
       9589.7973       3.6810320
       9590.9899       4.1862528
       9592.1826       4.6117994
       9593.3752       4.2524468
       9594.5678       4.2779229
       9595.7605       4.2719397
       9596.9531       3.9797987
       9598.1457       3.7946669
       9599.3384       3.6262952
       9600.5310       3.5658500
       9601.7236       4.0838705
       9602.9163       3.4636166
       9604.1089       3.6863555
       9605.3015       4.1332779
       9606.4942       5.0947045
       9607.6868       5.2800912
       9608.8794       5.1316681
       9610.0721       4.7694171
       9611.2647       4.5891267
       9612.4573       4.3466023
       9613.6500       4.5041721
       9614.8426       4.2488397
       9616.0352       4.1319325
       9617.2279       3.7948441
       9618.4205       4.1093402
       9619.6131       4.1817896
       9620.8058       4.2149753
       9621.9984       4.3742082
       9623.1910       4.1060029
       9624.3837       4.2302619
       9625.5763       4.2186286
       9626.7689       4.0340344
       9627.9616       4.1525857
       9629.1542       4.3115096
       9630.3468       4.2767062
       9631.5395       4.4080047
       9632.7321       4.1071739
       9633.9247       4.3620173
       9635.1174       4.3875287
       9636.3100       4.2209013
       9637.5026       4.1315557
       9638.6953       4.1393395
       9639.8879       3.8496289
       9641.0805       4.0480775
       9642.2732       4.0219657
       9643.4658       4.0579211
       9644.6584       4.1972578
       9645.8511       4.3137591
       9647.0437       3.9484359
       9648.2363       3.9823711
       9649.4290       3.5314141
       9650.6216       4.0767748
       9651.8142       4.4602349
       9653.0069       5.0830968
       9654.1995       4.9572832
       9655.3921       5.1369414
       9656.5848       5.3562227
       9657.7774       4.7470511
       9658.9700       4.7217992
       9660.1627       4.7740088
       9661.3553       4.7289396
       9662.5479       4.5354930
       9663.7406       4.6335591
       9664.9332       4.9877971
       9666.1258       4.6193642
       9667.3185       4.6900791
       9668.5111       4.1110937
       9669.7037       4.0230770
       9670.8964       3.9853458
       9672.0890       3.9939856
       9673.2816       3.7894625
       9674.4743       4.6863261
       9675.6669       4.1165471
       9676.8595       3.9057423
       9678.0522       3.9025263
       9679.2448       3.6441503
       9680.4374       3.5839284
       9681.6301       4.1211037
       9682.8227       4.7457582
       9684.0153       4.1581085
       9685.2080       4.3084852
       9686.4006       4.6022410
       9687.5932       4.1499129
       9688.7859       4.1198038
       9689.9785       4.1913838
       9691.1711       4.1145040
       9692.3638       4.0102415
       9693.5564       3.8579908
       9694.7490       3.8135800
       9695.9417       3.7958154
       9697.1343       4.0525947
       9698.3269       3.9314660
       9699.5196       3.6688055
       9700.7122       3.5717936
       9701.9048       3.5972665
       9703.0975       4.0822725
       9704.2901       4.4113376
       9705.4827       4.4439871
       9706.6754       3.9495610
       9707.8680       4.2066854
       9709.0606       4.1210852
       9710.2533       4.1308382
       9711.4459       3.9739936
       9712.6385       3.9985121
       9713.8312       4.0968300
       9715.0238       3.9778287
       9716.2164       4.0261988
       9717.4091       3.9911839
       9718.6017       3.8439760
       9719.7944       3.8491679
       9720.9870       4.0682627
       9722.1796       3.9829077
       9723.3723       4.2347760
       9724.5649       3.7983537
       9725.7575       3.8989373
       9726.9502       4.2986853
       9728.1428       4.1563662
       9729.3354       4.1534552
       9730.5281       3.9194781
       9731.7207       4.0338440
       9732.9133       4.2264544
       9734.1060       4.1832346
       9735.2986       4.0952531
       9736.4912       4.2446048
       9737.6839       4.2053546
       9738.8765       4.1666560
       9740.0691       4.3285512
       9741.2618       4.3841863
       9742.4544       4.1374850
       9743.6470       4.4733554
       9744.8397       4.3475896
       9746.0323       4.2174528
       9747.2249       4.5268144
       9748.4176       4.2910429
       9749.6102       4.3913823
       9750.8028       4.6137503
       9751.9955       4.1190978
       9753.1881       4.2833606
       9754.3807       4.3562397
       9755.5734       4.4462624
       9756.7660       4.3145710
       9757.9586       4.1285446
       9759.1513       4.1264397
       9760.3439       4.1875074
       9761.5365       3.7694129
       9762.7292       4.0926102
       9763.9218       4.2415507
       9765.1144       4.3091252
       9766.3071       3.8299877
       9767.4997       2.9284489
       9768.6923       3.3010394
       9769.8850       4.1865887
       9771.0776       3.0965996
       9772.2702       3.9068218
       9773.4629       3.9709760
       9774.6555       4.0037213
       9775.8481       3.3698357
       9777.0408       3.6292133
       9778.2334       4.2239530
       9779.4260       3.9493893
       9780.6187       3.6531076
       9781.8113       4.0900284
       9783.0039       4.4433389
       9784.1966       4.1758042
       9785.3892       3.8590950
       9786.5818       3.9535862
       9787.7745       4.2747733
       9788.9671       4.1417754
       9790.1597       4.0558922
       9791.3524       3.9260829
       9792.5450       3.6736298
       9793.7376       3.4610063
       9794.9303       3.3827479
       9796.1229       3.7688059
       9797.3155       4.3821022
       9798.5082       4.0494533
       9799.7008       4.3757527
       9800.8934       4.1959352
       9802.0861       4.1651414
       9803.2787       4.3489696
