# wavelength flux
       2626.8736    0.0070006246
       2627.7567     0.050505146
       2628.6398     0.029812331
       2629.5229     0.084391677
       2630.4060      0.13163220
       2631.2891     0.091842699
       2632.1722      0.10144685
       2633.0553     0.044217278
       2633.9384     0.072483013
       2634.8215      0.11356781
       2635.7046      0.12751464
       2636.5877      0.11772050
       2637.4708      0.12355433
       2638.3539     0.068090391
       2639.2370     0.061284434
       2640.1201     0.095109407
       2641.0031      0.10584103
       2641.8862      0.13450013
       2642.7693     0.054843187
       2643.6524      0.11414551
       2644.5355     0.064895048
       2645.4186     0.098470951
       2646.3017     0.097849502
       2647.1848      0.11369377
       2648.0679      0.13229518
       2648.9510     0.072773050
       2649.8341     0.088572733
       2650.7172     0.080568522
       2651.6003      0.10344846
       2652.4834      0.11233986
       2653.3665     0.085978116
       2654.2496     0.095417144
       2655.1327     0.066594887
       2656.0158     0.096832817
       2656.8989     0.072354093
       2657.7820     0.080847656
       2658.6651      0.18803992
       2659.5482     0.099607085
       2660.4313     0.054488982
       2661.3144     0.095464191
       2662.1975     0.073426709
       2663.0806     0.041007560
       2663.9637     0.026340437
       2664.8468     0.098369437
       2665.7299     0.056502785
       2666.6130     0.053978230
       2667.4961     0.086097629
       2668.3792     0.085014593
       2669.2623     0.050200763
       2670.1454     0.045342360
       2671.0285     0.091023342
       2671.9116     0.080248334
       2672.7947      0.10548564
       2673.6778     0.049843588
       2674.5609      0.12895740
       2675.4439      0.15550439
       2676.3270      0.10833873
       2677.2101     0.075791726
       2678.0932     0.079383649
       2678.9763     0.098419285
       2679.8594     0.082242443
       2680.7425     0.063843413
       2681.6256      0.12071236
       2682.5087     0.099691364
       2683.3918     0.062855948
       2684.2749     0.095520219
       2685.1580      0.10247973
       2686.0411     0.086546486
       2686.9242      0.11775311
       2687.8073     0.091337371
       2688.6904     0.066656536
       2689.5735     0.099941442
       2690.4566      0.14458777
       2691.3397      0.11954267
       2692.2228      0.12633205
       2693.1059     0.019852503
       2693.9890      0.11371729
       2694.8721     0.052771393
       2695.7552     0.047749333
       2696.6383     0.022025036
       2697.5214     0.071784180
       2698.4045     0.071223434
       2699.2876     0.058576194
       2700.1707     0.060777113
       2701.0538     0.097926925
       2701.9369     0.090507908
       2702.8200      0.13188535
       2703.7031     0.082409400
       2704.5862     0.098293402
       2705.4693     0.078624662
       2706.3524      0.12701582
       2707.2355      0.10771892
       2708.1186     0.084201114
       2709.0017      0.10776545
       2709.8848      0.15295086
       2710.7678      0.13546951
       2711.6509     0.082206636
       2712.5340     0.079054573
       2713.4171      0.13726865
       2714.3002     0.097939090
       2715.1833     0.085769292
       2716.0664      0.13126069
       2716.9495     0.057180088
       2717.8326     0.076354308
       2718.7157     0.054103503
       2719.5988      0.10716789
       2720.4819      0.13061714
       2721.3650     0.064372054
       2722.2481      0.13875684
       2723.1312      0.11576168
       2724.0143      0.11211401
       2724.8974     0.082316643
       2725.7805      0.11549663
       2726.6636     0.098682541
       2727.5467      0.11097613
       2728.4298     0.082943605
       2729.3129     0.077306750
       2730.1960     0.068289245
       2731.0791      0.11057576
       2731.9622      0.13801072
       2732.8453      0.10792269
       2733.7284      0.12312410
       2734.6115      0.11417251
       2735.4946     0.062042246
       2736.3777      0.12266124
       2737.2608     0.061234517
       2738.1439     0.060785052
       2739.0270      0.10788541
       2739.9101     0.089723531
       2740.7932     0.091182038
       2741.6763     0.092157372
       2742.5594     0.040985590
       2743.4425     0.079749701
       2744.3256      0.12347920
       2745.2086     0.057787489
       2746.0917     0.090666023
       2746.9748     0.097123709
       2747.8579     0.064789093
       2748.7410     0.057846750
       2749.6241     0.092314479
       2750.5072     0.093928039
       2751.3903     0.067553375
       2752.2734     0.087171860
       2753.1565      0.10525760
       2754.0396     0.063036846
       2754.9227     0.065857153
       2755.8058     0.064932036
       2756.6889      0.10863183
       2757.5720      0.11993237
       2758.4551     0.098161781
       2759.3382      0.10202744
       2760.2213     0.098801462
       2761.1044     0.073711001
       2761.9875     0.094181129
       2762.8706     0.063857996
       2763.7537     0.071586556
       2764.6368     0.069369434
       2765.5199     0.079855836
       2766.4030     0.050867412
       2767.2861     0.077725574
       2768.1692     0.038740516
       2769.0523     0.099274839
       2769.9354     0.082184252
       2770.8185     0.079056866
       2771.7016      0.10058972
       2772.5847     0.084446165
       2773.4678     0.088259319
       2774.3509     0.065363756
       2775.2340      0.10260750
       2776.1171     0.091284900
       2777.0002      0.10743459
       2777.8833     0.096692487
       2778.7664     0.072276494
       2779.6494     0.072577243
       2780.5325     0.061662323
       2781.4156     0.067072537
       2782.2987     0.051382172
       2783.1818      0.11300870
       2784.0649      0.10379199
       2784.9480     0.077227577
       2785.8311     0.041160848
       2786.7142     0.042523995
       2787.5973     0.011797748
       2788.4804     0.067380137
       2789.3635     0.093401885
       2790.2466     0.063397828
       2791.1297      0.10538302
       2792.0128     0.080000490
       2792.8959     0.098196509
       2793.7790      0.10549917
       2794.6621      0.11299093
       2795.5452      0.11442464
       2796.4283      0.11014204
       2797.3114      0.12517573
       2798.1945      0.13123105
       2799.0776      0.12162755
       2799.9607     0.096896861
       2800.8438     0.080505043
       2801.7269      0.12445915
       2802.6100     0.083414669
       2803.4931      0.11208752
       2804.3762     0.096768330
       2805.2593      0.10903887
       2806.1424      0.13346851
       2807.0255     0.096715148
       2807.9086      0.11661718
       2808.7917      0.14183848
       2809.6748      0.12144764
       2810.5579      0.12411183
       2811.4410      0.10267239
       2812.3241     0.081648439
       2813.2072     0.097631658
       2814.0903      0.13024670
       2814.9733      0.12926231
       2815.8564     0.097142376
       2816.7395      0.12126401
       2817.6226      0.11985590
       2818.5057      0.12240699
       2819.3888     0.087106913
       2820.2719      0.12575601
       2821.1550      0.10937885
       2822.0381     0.073399569
       2822.9212     0.096831598
       2823.8043      0.11104348
       2824.6874      0.12060232
       2825.5705     0.084354976
       2826.4536      0.13819119
       2827.3367      0.11000425
       2828.2198      0.11037347
       2829.1029      0.13647339
       2829.9860      0.12391784
       2830.8691      0.12346328
       2831.7522     0.094990520
       2832.6353      0.11951427
       2833.5184      0.11216696
       2834.4015      0.10699093
       2835.2846      0.14575494
       2836.1677      0.10192987
       2837.0508     0.093125057
       2837.9339      0.10834632
       2838.8170      0.11784132
       2839.7001     0.082545663
       2840.5832     0.072538129
       2841.4663     0.089537747
       2842.3494     0.094857652
       2843.2325      0.13057522
       2844.1156      0.11339714
       2844.9987      0.10944791
       2845.8818      0.11063273
       2846.7649      0.11800432
       2847.6480     0.098281919
       2848.5311      0.10831904
       2849.4141     0.096079303
       2850.2972      0.12194298
       2851.1803      0.10943881
       2852.0634      0.13180049
       2852.9465      0.10217855
       2853.8296     0.081924068
       2854.7127      0.10455540
       2855.5958      0.12061739
       2856.4789      0.10235719
       2857.3620      0.13180245
       2858.2451      0.13798589
       2859.1282      0.10814838
       2860.0113      0.12124794
       2860.8944      0.10878949
       2861.7775     0.055491858
       2862.6606      0.11203377
       2863.5437     0.090576529
       2864.4268     0.097845216
       2865.3099      0.12030173
       2866.1930      0.13393910
       2867.0761     0.079021120
       2867.9592      0.12388840
       2868.8423     0.093863455
       2869.7254      0.13801315
       2870.6085      0.11761626
       2871.4916      0.12131327
       2872.3747      0.11213897
       2873.2578      0.12334272
       2874.1409      0.12445733
       2875.0240      0.12309300
       2875.9071      0.12119562
       2876.7902      0.12444706
       2877.6733     0.093732163
       2878.5564      0.12916478
       2879.4395      0.11352803
       2880.3226      0.11258946
       2881.2057      0.11335769
       2882.0888     0.090385135
       2882.9719      0.12219935
       2883.8549      0.14120157
       2884.7380      0.11642425
       2885.6211      0.12670549
       2886.5042      0.10519394
       2887.3873      0.12928729
       2888.2704      0.11137180
       2889.1535      0.13793495
       2890.0366      0.14728207
       2890.9197     0.092951242
       2891.8028     0.098729159
       2892.6859      0.12302756
       2893.5690      0.11872968
       2894.4521      0.13818043
       2895.3352     0.088320252
       2896.2183      0.13321218
       2897.1014      0.12538669
       2897.9845      0.11643239
       2898.8676      0.11456994
       2899.7507      0.11805138
       2900.6338      0.11503051
       2901.5169     0.098744221
       2902.4000     0.083612657
       2903.2831     0.079438941
       2904.1662      0.11571944
       2905.0493      0.14796238
       2905.9324      0.12209326
       2906.8155      0.13800629
       2907.6986     0.093243194
       2908.5817      0.13447378
       2909.4648      0.13115623
       2910.3479      0.11920819
       2911.2310      0.12416828
       2912.1141      0.10307020
       2912.9972      0.12894696
       2913.8803      0.15222848
       2914.7634      0.10980122
       2915.6465      0.13445293
       2916.5296      0.10164686
       2917.4127      0.12254917
       2918.2958      0.10792433
       2919.1788      0.12264624
       2920.0619      0.10065249
       2920.9450      0.10670805
       2921.8281      0.10204388
       2922.7112      0.13147010
       2923.5943      0.13561022
       2924.4774      0.10032625
       2925.3605      0.13390092
       2926.2436      0.12697970
       2927.1267      0.14920607
       2928.0098      0.11698596
       2928.8929      0.12255611
       2929.7760      0.16104964
       2930.6591      0.13699958
       2931.5422      0.13583792
       2932.4253      0.10719750
       2933.3084      0.11571278
       2934.1915      0.14340575
       2935.0746      0.13868478
       2935.9577      0.11880780
       2936.8408      0.13048520
       2937.7239      0.11352134
       2938.6070      0.13662023
       2939.4901      0.10970091
       2940.3732      0.13434053
       2941.2563      0.13271188
       2942.1394     0.088143182
       2943.0225      0.11923073
       2943.9056      0.10493317
       2944.7887      0.13143759
       2945.6718      0.13293079
       2946.5549      0.11568406
       2947.4380      0.11909722
       2948.3211      0.10393645
       2949.2042      0.14488449
       2950.0873      0.12516088
       2950.9704      0.11599360
       2951.8535      0.14547494
       2952.7366      0.14628271
       2953.6196      0.11488609
       2954.5027      0.12627021
       2955.3858      0.14399678
       2956.2689      0.12925169
       2957.1520      0.12519808
       2958.0351      0.15804098
       2958.9182      0.13779981
       2959.8013      0.14393045
       2960.6844      0.12657799
       2961.5675      0.12726400
       2962.4506      0.11678887
       2963.3337      0.14085557
       2964.2168      0.14383053
       2965.0999      0.13026487
       2965.9830      0.14717495
       2966.8661      0.10291087
       2967.7492      0.13034620
       2968.6323     0.099074960
       2969.5154      0.16669197
       2970.3985      0.12904794
       2971.2816      0.10921853
       2972.1647      0.15533544
       2973.0478      0.15438156
       2973.9309      0.16742162
       2974.8140      0.15750748
       2975.6971      0.13883748
       2976.5802      0.12372859
       2977.4633     0.099729270
       2978.3464      0.14756915
       2979.2295      0.13669554
       2980.1126     0.092516359
       2980.9957      0.13696247
       2981.8788      0.11869277
       2982.7619      0.14864648
       2983.6450      0.14676383
       2984.5281      0.14959886
       2985.4112      0.16164212
       2986.2943      0.16636145
       2987.1774      0.12958635
       2988.0604      0.12405482
       2988.9435      0.10402225
       2989.8266      0.11472236
       2990.7097      0.14030010
       2991.5928      0.16355233
       2992.4759      0.14996592
       2993.3590      0.14845529
       2994.2421      0.16993224
       2995.1252      0.13530356
       2996.0083      0.14691860
       2996.8914      0.12835626
       2997.7745      0.11627401
       2998.6576      0.13934799
       2999.5407      0.15724815
       3000.4238      0.14416159
       3001.3069      0.12546185
       3002.1900      0.14207305
       3003.0731      0.14669784
       3003.9562      0.10649136
       3004.8393      0.10246925
       3005.7224      0.12791087
       3006.6055      0.15092999
       3007.4886      0.17803387
       3008.3717      0.15098132
       3009.2548      0.13275551
       3010.1379      0.12714499
       3011.0210      0.12677554
       3011.9041      0.12270046
       3012.7872      0.15597486
       3013.6703      0.18472847
       3014.5534      0.16303120
       3015.4365      0.13841030
       3016.3196      0.17131840
       3017.2027      0.13830993
       3018.0858      0.13020462
       3018.9689      0.13062483
       3019.8520      0.15775538
       3020.7351      0.12988055
       3021.6182      0.16296629
       3022.5013      0.15003300
       3023.3843      0.15412629
       3024.2674      0.14381799
       3025.1505      0.14486569
       3026.0336      0.16617211
       3026.9167      0.14050120
       3027.7998      0.11573277
       3028.6829      0.16876681
       3029.5660      0.16140236
       3030.4491      0.15958743
       3031.3322      0.14829703
       3032.2153      0.13603982
       3033.0984      0.18357472
       3033.9815      0.15136124
       3034.8646      0.16417547
       3035.7477      0.16463879
       3036.6308      0.17670249
       3037.5139      0.14553007
       3038.3970      0.12273210
       3039.2801      0.15449378
       3040.1632      0.16673606
       3041.0463      0.13376877
       3041.9294      0.13179904
       3042.8125      0.15636569
       3043.6956      0.15282042
       3044.5787      0.16144215
       3045.4618      0.16896398
       3046.3449      0.15190164
       3047.2280      0.14646598
       3048.1111      0.15634148
       3048.9942      0.18772221
       3049.8773      0.16357646
       3050.7604      0.15729386
       3051.6435      0.16680998
       3052.5266      0.13148385
       3053.4097      0.14868177
       3054.2928      0.14320110
       3055.1759      0.14331733
       3056.0590      0.13747393
       3056.9421      0.13771332
       3057.8251      0.18215881
       3058.7082      0.16430776
       3059.5913      0.14098481
       3060.4744      0.14953885
       3061.3575      0.13096369
       3062.2406      0.14526882
       3063.1237      0.15389558
       3064.0068      0.15551280
       3064.8899      0.16227005
       3065.7730      0.17774335
       3066.6561      0.16600136
       3067.5392      0.14504697
       3068.4223      0.15496812
       3069.3054      0.13779891
       3070.1885      0.14619357
       3071.0716      0.14720048
       3071.9547      0.12675899
       3072.8378      0.14538888
       3073.7209      0.12998227
       3074.6040      0.14137266
       3075.4871      0.15209123
       3076.3702      0.15919008
       3077.2533      0.18906880
       3078.1364      0.16362451
       3079.0195      0.15426099
       3079.9026      0.15245415
       3080.7857      0.15782564
       3081.6688      0.18163466
       3082.5519      0.15649911
       3083.4350      0.13815652
       3084.3181      0.15970452
       3085.2012      0.13186909
       3086.0843      0.15478590
       3086.9674      0.14458513
       3087.8505      0.16914674
       3088.7336      0.13019195
       3089.6167      0.13586067
       3090.4998      0.15323561
       3091.3829      0.14296766
       3092.2659      0.15850918
       3093.1490      0.14989926
       3094.0321      0.14621559
       3094.9152      0.14923846
       3095.7983      0.12165827
       3096.6814      0.13878959
       3097.5645      0.13969187
       3098.4476      0.14917651
       3099.3307      0.13232735
       3100.2138      0.13627371
       3101.0969      0.17617320
       3101.9800      0.15975750
       3102.8631      0.14683348
       3103.7462      0.15522311
       3104.6293      0.16095035
       3105.5124      0.15057004
       3106.3955      0.15402207
       3107.2786      0.16053466
       3108.1617      0.17626468
       3109.0448      0.14908107
       3109.9279      0.11695837
       3110.8110      0.19119201
       3111.6941      0.17261561
       3112.5772      0.15456673
       3113.4603      0.14448376
       3114.3434      0.14797406
       3115.2265      0.14974354
       3116.1096      0.13692276
       3116.9927      0.15318594
       3117.8758      0.17303188
       3118.7589      0.14937514
       3119.6420      0.12292572
       3120.5251      0.16388779
       3121.4082      0.16217247
       3122.2913      0.16527266
       3123.1744      0.14223757
       3124.0575      0.15069417
       3124.9406      0.15573050
       3125.8237      0.15921375
       3126.7068      0.13806384
       3127.5898      0.13391271
       3128.4729      0.11923421
       3129.3560      0.11445447
       3130.2391      0.16127527
       3131.1222      0.14463042
       3132.0053      0.15278000
       3132.8884      0.15293538
       3133.7715      0.16429256
       3134.6546      0.14951807
       3135.5377      0.16502092
       3136.4208      0.19233227
       3137.3039      0.17602130
       3138.1870      0.16034185
       3139.0701      0.14462963
       3139.9532      0.15104383
       3140.8363      0.14035667
       3141.7194      0.15115643
       3142.6025      0.15407983
       3143.4856      0.14097326
       3144.3687      0.18178805
       3145.2518      0.16771129
       3146.1349      0.15832817
       3147.0180      0.14206338
       3147.9011      0.16122254
       3148.7842      0.13174930
       3149.6673      0.15664759
       3150.5504      0.13323471
       3151.4335      0.13481583
       3152.3166      0.12928633
       3153.1997      0.16099518
       3154.0828      0.13088542
       3154.9659      0.12658418
       3155.8490      0.14972255
       3156.7321      0.16493255
       3157.6152      0.12820423
       3158.4983      0.15925410
       3159.3814      0.13251640
       3160.2645      0.13884115
       3161.1476      0.15150486
       3162.0306      0.11239257
       3162.9137      0.14128013
       3163.7968      0.15818208
       3164.6799      0.15869306
       3165.5630      0.12612395
       3166.4461      0.13658861
       3167.3292      0.15002827
       3168.2123      0.13700925
       3169.0954      0.13707763
       3169.9785      0.15181393
       3170.8616      0.15014098
       3171.7447      0.15478717
       3172.6278      0.16737264
       3173.5109      0.16097509
       3174.3940      0.14981611
       3175.2771      0.13706560
       3176.1602      0.11640989
       3177.0433      0.14865687
       3177.9264      0.16041463
       3178.8095      0.12108902
       3179.6926     0.094944562
       3180.5757     0.078446499
       3181.4588      0.10034655
       3182.3419      0.12809560
       3183.2250      0.12573444
       3184.1081      0.15833894
       3184.9912      0.12983315
       3185.8743      0.14976117
       3186.7574      0.15900774
       3187.6405      0.16738676
       3188.5236      0.14640467
       3189.4067      0.17183542
       3190.2898      0.15555902
       3191.1729      0.14874102
       3192.0560      0.16689339
       3192.9391      0.12999852
       3193.8222      0.15950962
       3194.7053      0.16940315
       3195.5884      0.12907817
       3196.4714      0.15347785
       3197.3545      0.13915162
       3198.2376      0.15810687
       3199.1207      0.16435516
       3200.0038      0.15999695
       3200.8869      0.14689296
       3201.7700      0.15054122
       3202.6531      0.16240902
       3203.5362      0.18097405
       3204.4193      0.16163507
       3205.3024      0.17865417
       3206.1855      0.21490717
       3207.0686      0.41367599
       3207.9517      0.59672823
       3208.8348      0.32658447
       3209.7179      0.12665371
       3210.6010      0.16041201
       3211.4841      0.15148412
       3212.3672      0.12695811
       3213.2503      0.15604664
       3214.1334      0.13704477
       3215.0165      0.14129733
       3215.8996      0.15536237
       3216.7827      0.13901053
       3217.6658      0.16761728
       3218.5489      0.14963450
       3219.4320      0.16643396
       3220.3151      0.16539361
       3221.1982      0.17353688
       3222.0813      0.14102887
       3222.9644      0.14991265
       3223.8475      0.13610910
       3224.7306      0.15065595
       3225.6137      0.15031125
       3226.4968      0.14108927
       3227.3799      0.13860717
       3228.2630      0.10887745
       3229.1461      0.14783372
       3230.0292      0.14599382
       3230.9123      0.13117437
       3231.7953      0.12546578
       3232.6784      0.15322808
       3233.5615      0.14715535
       3234.4446      0.13568801
       3235.3277      0.14234401
       3236.2108      0.17049871
       3237.0939      0.15663047
       3237.9770      0.16274326
       3238.8601      0.13639926
       3239.7432      0.14816203
       3240.6263      0.16022231
       3241.5094      0.14019257
       3242.3925      0.14161110
       3243.2756      0.15148897
       3244.1587      0.13849493
       3245.0418      0.13188492
       3245.9249      0.15325980
       3246.8080      0.17060698
       3247.6911      0.16828932
       3248.5742      0.15003167
       3249.4573      0.13060766
       3250.3404      0.16612608
       3251.2235      0.14960847
       3252.1066      0.14743648
       3252.9897      0.14804366
       3253.8728      0.15016257
       3254.7559      0.13894071
       3255.6390      0.16318731
       3256.5221      0.14916061
       3257.4052      0.14509158
       3258.2883      0.14627427
       3259.1714      0.13927826
       3260.0545      0.17287227
       3260.9376      0.17388257
       3261.8207      0.15715024
       3262.7038      0.16508769
       3263.5869      0.16517502
       3264.4700      0.18615184
       3265.3531      0.17280516
       3266.2361      0.14692430
       3267.1192      0.13645150
       3268.0023      0.15646617
       3268.8854      0.14148923
       3269.7685      0.13774190
       3270.6516      0.15002609
       3271.5347      0.14910459
       3272.4178      0.13977437
       3273.3009      0.15474913
       3274.1840      0.15543772
       3275.0671      0.18897418
       3275.9502      0.16984380
       3276.8333      0.13521765
       3277.7164      0.13923313
       3278.5995      0.15720252
       3279.4826      0.18118847
       3280.3657      0.14663976
       3281.2488      0.15069920
       3282.1319      0.16840888
       3283.0150      0.14701750
       3283.8981      0.19139543
       3284.7812      0.14748842
       3285.6643      0.16250102
       3286.5474      0.15524614
       3287.4305      0.18186239
       3288.3136      0.15775629
       3289.1967      0.18897974
       3290.0798      0.14301994
       3290.9629      0.16820139
       3291.8460      0.16862266
       3292.7291      0.19524107
       3293.6122      0.18863818
       3294.4953      0.15723845
       3295.3784      0.19338971
       3296.2615      0.17683808
       3297.1446      0.19565923
       3298.0277      0.15588175
       3298.9108      0.17149249
       3299.7939      0.18646117
       3300.6769      0.19344734
       3301.5600      0.20323117
       3302.4431      0.17205497
       3303.3262      0.18672939
       3304.2093      0.15700578
       3305.0924      0.15778926
       3305.9755      0.18683622
       3306.8586      0.17512786
       3307.7417      0.19391394
       3308.6248      0.16813370
       3309.5079      0.20233783
       3310.3910      0.19306141
       3311.2741      0.19606257
       3312.1572      0.17802664
       3313.0403      0.18324698
       3313.9234      0.18000185
       3314.8065      0.19359624
       3315.6896      0.20689255
       3316.5727      0.16480953
       3317.4558      0.15408719
       3318.3389      0.16961548
       3319.2220      0.16846211
       3320.1051      0.17102626
       3320.9882      0.15425710
       3321.8713      0.17342196
       3322.7544      0.18338146
       3323.6375      0.17673545
       3324.5206      0.16581057
       3325.4037      0.14886708
       3326.2868      0.16897321
       3327.1699      0.20573457
       3328.0530      0.18542267
       3328.9361      0.17678658
       3329.8192      0.17701156
       3330.7023      0.17310410
       3331.5854      0.16534232
       3332.4685      0.16170013
       3333.3516      0.20692374
       3334.2347      0.18229522
       3335.1178      0.14414225
       3336.0008      0.16182789
       3336.8839      0.16235858
       3337.7670      0.17374509
       3338.6501      0.16168295
       3339.5332      0.18042517
       3340.4163      0.22981176
       3341.2994      0.16594547
       3342.1825      0.16982248
       3343.0656      0.15961420
       3343.9487      0.17094294
       3344.8318      0.17177912
       3345.7149      0.19891414
       3346.5980      0.16833772
       3347.4811      0.21201396
       3348.3642      0.20603663
       3349.2473      0.17061986
       3350.1304      0.16134498
       3351.0135      0.14011227
       3351.8966      0.15138005
       3352.7797      0.16933897
       3353.6628      0.17774802
       3354.5459      0.19030414
       3355.4290      0.20398464
       3356.3121      0.18003615
       3357.1952      0.19204414
       3358.0783      0.20652288
       3358.9614      0.17927278
       3359.8445      0.16094611
       3360.7276      0.16656260
       3361.6107      0.17931029
       3362.4938      0.16318201
       3363.3769      0.13255409
       3364.2600      0.18702147
       3365.1431      0.18035955
       3366.0262      0.19795064
       3366.9093      0.18920695
       3367.7924      0.17280691
       3368.6755      0.18395377
       3369.5586      0.16906001
       3370.4416      0.19683729
       3371.3247      0.17864068
       3372.2078      0.17655265
       3373.0909      0.17223050
       3373.9740      0.19274036
       3374.8571      0.18267352
       3375.7402      0.15681524
       3376.6233      0.19327959
       3377.5064      0.20453403
       3378.3895      0.17902163
       3379.2726      0.19049624
       3380.1557      0.18618255
       3381.0388      0.18786447
       3381.9219      0.18761424
       3382.8050      0.16695536
       3383.6881      0.16850263
       3384.5712      0.16040379
       3385.4543      0.19869550
       3386.3374      0.18664710
       3387.2205      0.17349564
       3388.1036      0.20495989
       3388.9867      0.22180353
       3389.8698      0.19354071
       3390.7529      0.17337509
       3391.6360      0.19319807
       3392.5191      0.14777671
       3393.4022      0.20612117
       3394.2853      0.19351849
       3395.1684      0.16926295
       3396.0515      0.18900321
       3396.9346      0.16434130
       3397.8177      0.18087619
       3398.7008      0.18923688
       3399.5839      0.21507281
       3400.4670      0.24098995
       3401.3501      0.19416723
       3402.2332      0.17284370
       3403.1163      0.21086419
       3403.9994      0.21532594
       3404.8824      0.18792481
       3405.7655      0.16722901
       3406.6486      0.19049033
       3407.5317      0.18987549
       3408.4148      0.19195687
       3409.2979      0.17556425
       3410.1810      0.19819623
       3411.0641      0.19712111
       3411.9472      0.17528840
       3412.8303      0.20701669
       3413.7134      0.20591642
       3414.5965      0.20934949
       3415.4796      0.18911889
       3416.3627      0.21605749
       3417.2458      0.21597521
       3418.1289      0.19434197
       3419.0120      0.19088692
       3419.8951      0.17909475
       3420.7782      0.18892868
       3421.6613      0.21137676
       3422.5444      0.23001976
       3423.4275      0.20555543
       3424.3106      0.20207969
       3425.1937      0.19328152
       3426.0768      0.20153286
       3426.9599      0.19061896
       3427.8430      0.18681369
       3428.7261      0.22709196
       3429.6092      0.20674330
       3430.4923      0.18245012
       3431.3754      0.20088120
       3432.2585      0.19875167
       3433.1416      0.19869898
       3434.0247      0.20234179
       3434.9078      0.20945513
       3435.7909      0.19974501
       3436.6740      0.18753745
       3437.5571      0.19118974
       3438.4402      0.20187990
       3439.3233      0.19519649
       3440.2063      0.23034285
       3441.0894      0.21063576
       3441.9725      0.20670461
       3442.8556      0.18109801
       3443.7387      0.17310715
       3444.6218      0.16936043
       3445.5049      0.18895000
       3446.3880      0.18764570
       3447.2711      0.18922022
       3448.1542      0.19796239
       3449.0373      0.20727149
       3449.9204      0.21429897
       3450.8035      0.19861983
       3451.6866      0.20410900
       3452.5697      0.22007294
       3453.4528      0.19912577
       3454.3359      0.20956140
       3455.2190      0.19795403
       3456.1021      0.19426496
       3456.9852      0.22025528
       3457.8683      0.18908712
       3458.7514      0.19291396
       3459.6345      0.20426810
       3460.5176      0.18550448
       3461.4007      0.18242495
       3462.2838      0.20914953
       3463.1669      0.18572681
       3464.0500      0.20183961
       3464.9331      0.22064332
       3465.8162      0.20921821
       3466.6993      0.16366459
       3467.5824      0.18971028
       3468.4655      0.23022896
       3469.3486      0.19811372
       3470.2317      0.23824519
       3471.1148      0.21348109
       3471.9979      0.20951441
       3472.8810      0.19104547
       3473.7641      0.20029738
       3474.6471      0.18885744
       3475.5302      0.16827707
       3476.4133      0.17095037
       3477.2964      0.20773386
       3478.1795      0.19491854
       3479.0626      0.19183709
       3479.9457      0.19881067
       3480.8288      0.16737279
       3481.7119      0.17194348
       3482.5950      0.21180074
       3483.4781      0.20770588
       3484.3612      0.20137642
       3485.2443      0.19320476
       3486.1274      0.21875345
       3487.0105      0.19295101
       3487.8936      0.19185972
       3488.7767      0.20492194
       3489.6598      0.19695195
       3490.5429      0.20364967
       3491.4260      0.19764543
       3492.3091      0.20548152
       3493.1922      0.20613317
       3494.0753      0.19476434
       3494.9584      0.16633472
       3495.8415      0.21013150
       3496.7246      0.18779579
       3497.6077      0.20672439
       3498.4908      0.20916653
       3499.3739      0.21903248
       3500.2570      0.22720819
       3501.1401      0.21959158
       3502.0232      0.21488747
       3502.9063      0.19251097
       3503.7894      0.22163626
       3504.6725      0.20561829
       3505.5556      0.20590245
       3506.4387      0.21691615
       3507.3218      0.20686492
       3508.2049      0.20655034
       3509.0879      0.19620133
       3509.9710      0.20172733
       3510.8541      0.20216706
       3511.7372      0.16919755
       3512.6203      0.19965055
       3513.5034      0.17207564
       3514.3865      0.17986636
       3515.2696      0.20805313
       3516.1527      0.18911702
       3517.0358      0.21851184
       3517.9189      0.19435567
       3518.8020      0.21845481
       3519.6851      0.22198035
       3520.5682      0.20501137
       3521.4513      0.21318874
       3522.3344      0.19494671
       3523.2175      0.17915817
       3524.1006      0.22116467
       3524.9837      0.19444089
       3525.8668      0.19957296
       3526.7499      0.22076523
       3527.6330      0.20190739
       3528.5161      0.18534133
       3529.3992      0.23477165
       3530.2823      0.18402120
       3531.1654      0.20512207
       3532.0485      0.18799376
       3532.9316      0.20911774
       3533.8147      0.19713299
       3534.6978      0.20725720
       3535.5809      0.19216593
       3536.4640      0.19479309
       3537.3471      0.23253076
       3538.2302      0.21267247
       3539.1133      0.23172400
       3539.9964      0.21160908
       3540.8795      0.20828674
       3541.7626      0.23522745
       3542.6457      0.21064483
       3543.5288      0.22366008
       3544.4118      0.23922197
       3545.2949      0.21136154
       3546.1780      0.23196742
       3547.0611      0.27418134
       3547.9442      0.21272391
       3548.8273      0.23166693
       3549.7104      0.20475014
       3550.5935      0.20770490
       3551.4766      0.21082186
       3552.3597      0.18959736
       3553.2428      0.21087193
       3554.1259      0.19891614
       3555.0090      0.22124515
       3555.8921      0.21699126
       3556.7752      0.20973590
       3557.6583      0.20765764
       3558.5414      0.20964076
       3559.4245      0.19079360
       3560.3076      0.20170998
       3561.1907      0.21210024
       3562.0738      0.20195248
       3562.9569      0.21549407
       3563.8400      0.21636188
       3564.7231      0.20576884
       3565.6062      0.20300435
       3566.4893      0.19057824
       3567.3724      0.23448717
       3568.2555      0.19766058
       3569.1386      0.20853579
       3570.0217      0.18956816
       3570.9048      0.19280715
       3571.7879      0.17801926
       3572.6710      0.19602390
       3573.5541      0.21808598
       3574.4372      0.18082698
       3575.3203      0.24003395
       3576.2034      0.19788242
       3577.0865      0.25503554
       3577.9696      0.22286957
       3578.8526      0.22075912
       3579.7357      0.21212213
       3580.6188      0.23593064
       3581.5019      0.18892697
       3582.3850      0.22122459
       3583.2681      0.21749256
       3584.1512      0.21037706
       3585.0343      0.18947190
       3585.9174      0.22314908
       3586.8005      0.20425877
       3587.6836      0.20169251
       3588.5667      0.20106717
       3589.4498      0.19887318
       3590.3329      0.22385842
       3591.2160      0.21898145
       3592.0991      0.21172127
       3592.9822      0.21415253
       3593.8653      0.25543639
       3594.7484      0.22502732
       3595.6315      0.24176750
       3596.5146      0.21337382
       3597.3977      0.23640689
       3598.2808      0.21315799
       3599.1639      0.25262794
       3600.0470      0.21452006
       3600.9301      0.20946536
       3601.8132      0.23171936
       3602.6963      0.22569660
       3603.5794      0.19954395
       3604.4625      0.22106672
       3605.3456      0.21709324
       3606.2287      0.23081106
       3607.1118      0.22435324
       3607.9949      0.23262287
       3608.8780      0.23625952
       3609.7611      0.22606322
       3610.6442      0.20011867
       3611.5273      0.21032369
       3612.4104      0.23043739
       3613.2934      0.23328654
       3614.1765      0.18207202
       3615.0596      0.22096090
       3615.9427      0.22689646
       3616.8258      0.22312217
       3617.7089      0.18987697
       3618.5920      0.19629439
       3619.4751      0.23293905
       3620.3582      0.20743412
       3621.2413      0.20450836
       3622.1244      0.19923466
       3623.0075      0.22676635
       3623.8906      0.24325573
       3624.7737      0.24809742
       3625.6568      0.26209690
       3626.5399      0.26326173
       3627.4230      0.24164847
       3628.3061      0.23571135
       3629.1892      0.22433530
       3630.0723      0.24490171
       3630.9554      0.24164536
       3631.8385      0.26399032
       3632.7216      0.20011063
       3633.6047      0.21143741
       3634.4878      0.21801197
       3635.3709      0.23888773
       3636.2540      0.21646269
       3637.1371      0.20277869
       3638.0202      0.24322010
       3638.9033      0.25181362
       3639.7864      0.20855260
       3640.6695      0.23120648
       3641.5526      0.20851941
       3642.4357      0.23951799
       3643.3188      0.24608876
       3644.2019      0.19626289
       3645.0850      0.20458797
       3645.9681      0.21766712
       3646.8512      0.23470045
       3647.7343      0.23611578
       3648.6173      0.21807990
       3649.5004      0.21541739
       3650.3835      0.22466559
       3651.2666      0.22860246
       3652.1497      0.22083035
       3653.0328      0.21303189
       3653.9159      0.20701053
       3654.7990      0.24596309
       3655.6821      0.25893990
       3656.5652      0.21142823
       3657.4483      0.26497420
       3658.3314      0.21742206
       3659.2145      0.22318435
       3660.0976      0.25002600
       3660.9807      0.21670094
       3661.8638      0.23249762
       3662.7469      0.25634796
       3663.6300      0.22986770
       3664.5131      0.23024672
       3665.3962      0.21192288
       3666.2793      0.23338834
       3667.1624      0.26683993
       3668.0455      0.21978569
       3668.9286      0.22740985
       3669.8117      0.20024022
       3670.6948      0.21857969
       3671.5779      0.20291077
       3672.4610      0.24238453
       3673.3441      0.24048397
       3674.2272      0.25080879
       3675.1103      0.24085037
       3675.9934      0.26534560
       3676.8765      0.28006436
       3677.7596      0.25153255
       3678.6427      0.26243655
       3679.5258      0.23170499
       3680.4089      0.21712638
       3681.2920      0.22049946
       3682.1751      0.21802605
       3683.0581      0.21475151
       3683.9412      0.24091079
       3684.8243      0.23873703
       3685.7074      0.27381212
       3686.5905      0.22226276
       3687.4736      0.23092324
       3688.3567      0.24280989
       3689.2398      0.24258800
       3690.1229      0.24398199
       3691.0060      0.22925037
       3691.8891      0.23384357
       3692.7722      0.23452469
       3693.6553      0.24768025
       3694.5384      0.23382746
       3695.4215      0.23823581
       3696.3046      0.22431379
       3697.1877      0.23623976
       3698.0708      0.24045708
       3698.9539      0.27936337
       3699.8370      0.22277811
       3700.7201      0.27884955
       3701.6032      0.22519359
       3702.4863      0.21700276
       3703.3694      0.23448443
       3704.2525      0.21774202
       3705.1356      0.24652015
       3706.0187      0.23279811
       3706.9018      0.22359024
       3707.7849      0.21840863
       3708.6680      0.25100278
       3709.5511      0.25182329
       3710.4342      0.20507630
       3711.3173      0.24357781
       3712.2004      0.22318350
       3713.0835      0.26736015
       3713.9666      0.22956328
       3714.8497      0.25389015
       3715.7328      0.24931697
       3716.6159      0.22538442
       3717.4989      0.22888601
       3718.3820      0.24131467
       3719.2651      0.23126592
       3720.1482      0.26255910
       3721.0313      0.24845708
       3721.9144      0.28724546
       3722.7975      0.41686388
       3723.6806      0.55779948
       3724.5637      0.73405568
       3725.4468      0.95157388
       3726.3299       1.1745552
       3727.2130       1.1234325
       3728.0961       1.0192856
       3728.9792      0.88781795
       3729.8623      0.79918336
       3730.7454      0.58571419
       3731.6285      0.34580712
       3732.5116      0.23954059
       3733.3947      0.20654246
       3734.2778      0.21760407
       3735.1609      0.18629129
       3736.0440      0.25686457
       3736.9271      0.25832773
       3737.8102      0.25619580
       3738.6933      0.26892432
       3739.5764      0.27749774
       3740.4595      0.25992444
       3741.3426      0.28383788
       3742.2257      0.28484850
       3743.1088      0.26336917
       3743.9919      0.27054151
       3744.8750      0.27022316
       3745.7581      0.22371291
       3746.6412      0.22105802
       3747.5243      0.21129145
       3748.4074      0.20626391
       3749.2905      0.21110421
       3750.1736      0.24119274
       3751.0567      0.22013773
       3751.9398      0.27030389
       3752.8228      0.30098207
       3753.7059      0.28635079
       3754.5890      0.27972709
       3755.4721      0.30254201
       3756.3552      0.30186261
       3757.2383      0.30104634
       3758.1214      0.31493822
       3759.0045      0.32087163
       3759.8876      0.32695086
       3760.7707      0.30274528
       3761.6538      0.31851429
       3762.5369      0.31102518
       3763.4200      0.29991327
       3764.3031      0.28958676
       3765.1862      0.26870157
       3766.0693      0.24309109
       3766.9524      0.23250190
       3767.8355      0.22625833
       3768.7186      0.21384128
       3769.6017      0.23706602
       3770.4848      0.23722017
       3771.3679      0.26324933
       3772.2510      0.28544404
       3773.1341      0.26329435
       3774.0172      0.28558857
       3774.9003      0.26454608
       3775.7834      0.36906351
       3776.6665      0.31026338
       3777.5496      0.32151399
       3778.4327      0.37747849
       3779.3158      0.36222408
       3780.1989      0.36650219
       3781.0820      0.33420379
       3781.9651      0.31399326
       3782.8482      0.35807644
       3783.7313      0.37884102
       3784.6144      0.33599053
       3785.4975      0.37356272
       3786.3806      0.31554993
       3787.2636      0.36141914
       3788.1467      0.32151249
       3789.0298      0.32142698
       3789.9129      0.34558219
       3790.7960      0.30115749
       3791.6791      0.27541598
       3792.5622      0.23389181
       3793.4453      0.25460050
       3794.3284      0.24147221
       3795.2115      0.24886079
       3796.0946      0.21402950
       3796.9777      0.25287992
       3797.8608      0.20167265
       3798.7439      0.24422956
       3799.6270      0.27973994
       3800.5101      0.30175473
       3801.3932      0.30380445
       3802.2763      0.32034513
       3803.1594      0.30752535
       3804.0425      0.34425293
       3804.9256      0.33994378
       3805.8087      0.35930972
       3806.6918      0.34314765
       3807.5749      0.34184793
       3808.4580      0.36384030
       3809.3411      0.35292697
       3810.2242      0.37621997
       3811.1073      0.37500261
       3811.9904      0.37246790
       3812.8735      0.36799881
       3813.7566      0.35091633
       3814.6397      0.38707808
       3815.5228      0.34770504
       3816.4059      0.35876522
       3817.2890      0.40335973
       3818.1721      0.36825106
       3819.0552      0.36178480
       3819.9383      0.34019563
       3820.8214      0.34579628
       3821.7044      0.33422853
       3822.5875      0.33507913
       3823.4706      0.28962496
       3824.3537      0.32685554
       3825.2368      0.31560872
       3826.1199      0.25375077
       3827.0030      0.27593710
       3827.8861      0.32425599
       3828.7692      0.26656778
       3829.6523      0.26536438
       3830.5354      0.20067877
       3831.4185      0.21135272
       3832.3016      0.20823244
       3833.1847      0.20339428
       3834.0678      0.21308729
       3834.9509      0.22254954
       3835.8340      0.26091059
       3836.7171      0.23524368
       3837.6002      0.27960267
       3838.4833      0.26880393
       3839.3664      0.31369270
       3840.2495      0.28636266
       3841.1326      0.34218607
       3842.0157      0.38300277
       3842.8988      0.35509240
       3843.7819      0.35944056
       3844.6650      0.37929763
       3845.5481      0.38509003
       3846.4312      0.33755334
       3847.3143      0.41266500
       3848.1974      0.37470929
       3849.0805      0.40366922
       3849.9636      0.42042605
       3850.8467      0.40647689
       3851.7298      0.41354547
       3852.6129      0.36145601
       3853.4960      0.36934040
       3854.3791      0.38904834
       3855.2622      0.40304477
       3856.1453      0.40184853
       3857.0283      0.38587315
       3857.9114      0.38683024
       3858.7945      0.41174276
       3859.6776      0.38367306
       3860.5607      0.40971113
       3861.4438      0.38491210
       3862.3269      0.39721366
       3863.2100      0.41164789
       3864.0931      0.41916185
       3864.9762      0.40243455
       3865.8593      0.41065050
       3866.7424      0.39439655
       3867.6255      0.44047747
       3868.5086      0.44908972
       3869.3917      0.43061316
       3870.2748      0.39349562
       3871.1579      0.42836285
       3872.0410      0.36332663
       3872.9241      0.35109985
       3873.8072      0.41769605
       3874.6903      0.40195902
       3875.5734      0.36877722
       3876.4565      0.37643644
       3877.3396      0.36239787
       3878.2227      0.32182530
       3879.1058      0.32330547
       3879.9889      0.29114453
       3880.8720      0.30795967
       3881.7551      0.27933376
       3882.6382      0.28239205
       3883.5213      0.27644340
       3884.4044      0.29121415
       3885.2875      0.26317507
       3886.1706      0.29274340
       3887.0537      0.30081923
       3887.9368      0.34095853
       3888.8199      0.28411536
       3889.7030      0.25472968
       3890.5861      0.29678328
       3891.4691      0.26697362
       3892.3522      0.32782286
       3893.2353      0.30775961
       3894.1184      0.35129130
       3895.0015      0.39107256
       3895.8846      0.37740594
       3896.7677      0.33006338
       3897.6508      0.35759903
       3898.5339      0.38324717
       3899.4170      0.37564857
       3900.3001      0.37707023
       3901.1832      0.36181336
       3902.0663      0.37643982
       3902.9494      0.42484420
       3903.8325      0.40622398
       3904.7156      0.41726234
       3905.5987      0.43903166
       3906.4818      0.43434505
       3907.3649      0.41343886
       3908.2480      0.42075850
       3909.1311      0.41752214
       3910.0142      0.45154849
       3910.8973      0.38944818
       3911.7804      0.45375679
       3912.6635      0.37241500
       3913.5466      0.43365884
       3914.4297      0.39481369
       3915.3128      0.43727994
       3916.1959      0.36619237
       3917.0790      0.36476508
       3917.9621      0.41064509
       3918.8452      0.44905160
       3919.7283      0.41427696
       3920.6114      0.43412539
       3921.4945      0.43176952
       3922.3776      0.39662907
       3923.2607      0.42544387
       3924.1438      0.41641722
       3925.0269      0.36120203
       3925.9100      0.35475424
       3926.7930      0.35344077
       3927.6761      0.31115881
       3928.5592      0.30052427
       3929.4423      0.30757057
       3930.3254      0.31253584
       3931.2085      0.29292057
       3932.0916      0.29876208
       3932.9747      0.33488465
       3933.8578      0.37564527
       3934.7409      0.37695561
       3935.6240      0.35785197
       3936.5071      0.37637242
       3937.3902      0.39909542
       3938.2733      0.38299097
       3939.1564      0.40665839
       3940.0395      0.41991123
       3940.9226      0.41067987
       3941.8057      0.43620193
       3942.6888      0.38453007
       3943.5719      0.39241267
       3944.4550      0.40224821
       3945.3381      0.37062602
       3946.2212      0.39419130
       3947.1043      0.42714456
       3947.9874      0.41656200
       3948.8705      0.39524950
       3949.7536      0.44302466
       3950.6367      0.42525525
       3951.5198      0.36425028
       3952.4029      0.42584544
       3953.2860      0.41247813
       3954.1691      0.37017501
       3955.0522      0.36864032
       3955.9353      0.35704685
       3956.8184      0.34614979
       3957.7015      0.34175587
       3958.5846      0.33265754
       3959.4677      0.28606587
       3960.3508      0.30767328
       3961.2338      0.26154537
       3962.1169      0.28818615
       3963.0000      0.25628478
       3963.8831      0.26192184
       3964.7662      0.24391146
       3965.6493      0.24488518
       3966.5324      0.23996099
       3967.4155      0.24565642
       3968.2986      0.29346113
       3969.1817      0.25228090
       3970.0648      0.27856541
       3970.9479      0.27446783
       3971.8310      0.29472357
       3972.7141      0.35539126
       3973.5972      0.37808163
       3974.4803      0.33453956
       3975.3634      0.33559531
       3976.2465      0.36979667
       3977.1296      0.39381275
       3978.0127      0.39306092
       3978.8958      0.39423931
       3979.7789      0.37020122
       3980.6620      0.39517433
       3981.5451      0.41544045
       3982.4282      0.38782452
       3983.3113      0.41982009
       3984.1944      0.43343214
       3985.0775      0.41517192
       3985.9606      0.44166057
       3986.8437      0.42195353
       3987.7268      0.39303800
       3988.6099      0.46484649
       3989.4930      0.42281893
       3990.3761      0.46798077
       3991.2592      0.47499879
       3992.1423      0.42797992
       3993.0254      0.42509592
       3993.9085      0.44547163
       3994.7916      0.43560260
       3995.6746      0.40125481
       3996.5577      0.44474216
       3997.4408      0.43018685
       3998.3239      0.43852565
       3999.2070      0.43711979
       4000.0901      0.43384860
       4000.9732      0.47517054
       4001.8563      0.44426684
       4002.7394      0.46589773
       4003.6225      0.44739841
       4004.5056      0.45500792
       4005.3887      0.45666154
       4006.2718      0.46916949
       4007.1549      0.45804721
       4008.0380      0.44976776
       4008.9211      0.46898366
       4009.8042      0.44477258
       4010.6873      0.47151711
       4011.5704      0.46464273
       4012.4535      0.49762529
       4013.3366      0.48737517
       4014.2197      0.47132258
       4015.1028      0.47349821
       4015.9859      0.44680542
       4016.8690      0.46031079
       4017.7521      0.49438830
       4018.6352      0.46476605
       4019.5183      0.45787989
       4020.4014      0.47891789
       4021.2845      0.48295675
       4022.1676      0.47254999
       4023.0507      0.44514454
       4023.9338      0.46716466
       4024.8169      0.44838320
       4025.7000      0.45241418
       4026.5831      0.48246439
       4027.4662      0.44408257
       4028.3493      0.43197128
       4029.2324      0.48452662
       4030.1155      0.43997564
       4030.9985      0.46694795
       4031.8816      0.47567665
       4032.7647      0.46725238
       4033.6478      0.48991793
       4034.5309      0.45462882
       4035.4140      0.48175595
       4036.2971      0.47608236
       4037.1802      0.49089145
       4038.0633      0.48195589
       4038.9464      0.45118682
       4039.8295      0.47006166
       4040.7126      0.42578443
       4041.5957      0.44917311
       4042.4788      0.46213131
       4043.3619      0.44073983
       4044.2450      0.46190878
       4045.1281      0.43660736
       4046.0112      0.45617384
       4046.8943      0.47070872
       4047.7774      0.45413474
       4048.6605      0.46616330
       4049.5436      0.44975971
       4050.4267      0.50692619
       4051.3098      0.44170133
       4052.1929      0.40125388
       4053.0760      0.47884916
       4053.9591      0.46641911
       4054.8422      0.45879134
       4055.7253      0.45587748
       4056.6084      0.42364713
       4057.4915      0.46130516
       4058.3746      0.47683215
       4059.2577      0.42952502
       4060.1408      0.41315449
       4061.0239      0.43607155
       4061.9070      0.45214257
       4062.7901      0.50128426
       4063.6732      0.45762877
       4064.5563      0.49740141
       4065.4393      0.48277709
       4066.3224      0.45420715
       4067.2055      0.45400247
       4068.0886      0.45332974
       4068.9717      0.46879214
       4069.8548      0.45448356
       4070.7379      0.41626283
       4071.6210      0.42533578
       4072.5041      0.43193823
       4073.3872      0.42208810
       4074.2703      0.39482846
       4075.1534      0.46017973
       4076.0365      0.42581622
       4076.9196      0.39512631
       4077.8027      0.46874905
       4078.6858      0.38094658
       4079.5689      0.44876046
       4080.4520      0.39641898
       4081.3351      0.47070808
       4082.2182      0.39309718
       4083.1013      0.45489608
       4083.9844      0.41459817
       4084.8675      0.39523184
       4085.7506      0.42656270
       4086.6337      0.38791865
       4087.5168      0.38698305
       4088.3999      0.40052426
       4089.2830      0.37540742
       4090.1661      0.35092851
       4091.0492      0.39959008
       4091.9323      0.39135763
       4092.8154      0.32934583
       4093.6985      0.34483190
       4094.5816      0.33975091
       4095.4647      0.37417894
       4096.3478      0.38649468
       4097.2309      0.33698745
       4098.1140      0.33216877
       4098.9971      0.34047339
       4099.8801      0.38825971
       4100.7632      0.37229719
       4101.6463      0.37098588
       4102.5294      0.39284983
       4103.4125      0.36374780
       4104.2956      0.34643836
       4105.1787      0.38499370
       4106.0618      0.37377342
       4106.9449      0.38945732
       4107.8280      0.41672334
       4108.7111      0.43557766
       4109.5942      0.40323829
       4110.4773      0.44667364
       4111.3604      0.45238438
       4112.2435      0.40563967
       4113.1266      0.42057682
       4114.0097      0.41780439
       4114.8928      0.41773751
       4115.7759      0.44082879
       4116.6590      0.43178808
       4117.5421      0.43295065
       4118.4252      0.39127822
       4119.3083      0.42972457
       4120.1914      0.41429111
       4121.0745      0.44531055
       4121.9576      0.46384270
       4122.8407      0.44879096
       4123.7238      0.46370358
       4124.6069      0.44613684
       4125.4900      0.47109374
       4126.3731      0.43815109
       4127.2562      0.44761960
       4128.1393      0.45629446
       4129.0224      0.43663490
       4129.9055      0.47239424
       4130.7886      0.42467617
       4131.6717      0.41328979
       4132.5548      0.47559625
       4133.4379      0.46714577
       4134.3210      0.46423310
       4135.2040      0.46595442
       4136.0871      0.43546695
       4136.9702      0.47265721
       4137.8533      0.49603371
       4138.7364      0.46214285
       4139.6195      0.46379369
       4140.5026      0.46013979
       4141.3857      0.41657981
       4142.2688      0.42525489
       4143.1519      0.49037540
       4144.0350      0.45171410
       4144.9181      0.46228307
       4145.8012      0.45083360
       4146.6843      0.45647105
       4147.5674      0.46944232
       4148.4505      0.50273575
       4149.3336      0.47793336
       4150.2167      0.40005797
       4151.0998      0.44031760
       4151.9829      0.44549316
       4152.8660      0.39440732
       4153.7491      0.46358529
       4154.6322      0.49726436
       4155.5153      0.48368667
       4156.3984      0.45223783
       4157.2815      0.46778833
       4158.1646      0.45275390
       4159.0477      0.48284069
       4159.9308      0.46999020
       4160.8139      0.47136776
       4161.6970      0.46500254
       4162.5801      0.47653936
       4163.4632      0.47980411
       4164.3463      0.47396947
       4165.2294      0.47852750
       4166.1125      0.44503776
       4166.9956      0.42900428
       4167.8787      0.47111558
       4168.7618      0.43992502
       4169.6448      0.45927333
       4170.5279      0.46841492
       4171.4110      0.42573134
       4172.2941      0.44237617
       4173.1772      0.46202420
       4174.0603      0.50067317
       4174.9434      0.47445361
       4175.8265      0.45587223
       4176.7096      0.49846306
       4177.5927      0.40072198
       4178.4758      0.50177553
       4179.3589      0.47570746
       4180.2420      0.47921888
       4181.1251      0.47929379
       4182.0082      0.44451444
       4182.8913      0.50768733
       4183.7744      0.43817955
       4184.6575      0.42245863
       4185.5406      0.47339893
       4186.4237      0.44939428
       4187.3068      0.45000819
       4188.1899      0.50454064
       4189.0730      0.42392600
       4189.9561      0.45066113
       4190.8392      0.47637501
       4191.7223      0.43761389
       4192.6054      0.42648063
       4193.4885      0.49497541
       4194.3716      0.50563556
       4195.2547      0.46657349
       4196.1378      0.46184412
       4197.0209      0.52110579
       4197.9040      0.48130827
       4198.7871      0.45396059
       4199.6702      0.47479536
       4200.5533      0.45727735
       4201.4364      0.48551988
       4202.3195      0.47025719
       4203.2026      0.46801075
       4204.0856      0.42871154
       4204.9687      0.49294182
       4205.8518      0.49362189
       4206.7349      0.47143772
       4207.6180      0.45302637
       4208.5011      0.50651799
       4209.3842      0.46063089
       4210.2673      0.49805028
       4211.1504      0.51246474
       4212.0335      0.49612606
       4212.9166      0.46735862
       4213.7997      0.49749002
       4214.6828      0.47714466
       4215.5659      0.49915030
       4216.4490      0.50017773
       4217.3321      0.48273541
       4218.2152      0.46855894
       4219.0983      0.42709617
       4219.9814      0.42215002
       4220.8645      0.40909607
       4221.7476      0.50392277
       4222.6307      0.48006438
       4223.5138      0.45264088
       4224.3969      0.47865249
       4225.2800      0.48685739
       4226.1631      0.45744704
       4227.0462      0.45910369
       4227.9293      0.45634057
       4228.8124      0.47997032
       4229.6955      0.46372049
       4230.5786      0.45431875
       4231.4617      0.46577787
       4232.3448      0.43330479
       4233.2279      0.43772555
       4234.1110      0.46451266
       4234.9941      0.49513499
       4235.8772      0.49812469
       4236.7603      0.48156535
       4237.6434      0.47323707
       4238.5265      0.48073429
       4239.4095      0.48446993
       4240.2926      0.47340731
       4241.1757      0.42977349
       4242.0588      0.46091602
       4242.9419      0.45257507
       4243.8250      0.45926735
       4244.7081      0.49368343
       4245.5912      0.50951150
       4246.4743      0.47885163
       4247.3574      0.48755074
       4248.2405      0.47340293
       4249.1236      0.46076032
       4250.0067      0.44898605
       4250.8898      0.45364464
       4251.7729      0.43650964
       4252.6560      0.44955015
       4253.5391      0.48901977
       4254.4222      0.49468888
       4255.3053      0.44754865
       4256.1884      0.49877145
       4257.0715      0.42930730
       4257.9546      0.48756246
       4258.8377      0.51996983
       4259.7208      0.48689458
       4260.6039      0.45962959
       4261.4870      0.45256196
       4262.3701      0.44982423
       4263.2532      0.40782279
       4264.1363      0.47864661
       4265.0194      0.43136852
       4265.9025      0.41082653
       4266.7856      0.39141951
       4267.6687      0.37822659
       4268.5518      0.42478244
       4269.4349      0.46509050
       4270.3180      0.49937032
       4271.2011      0.46518095
       4272.0842      0.45841352
       4272.9673      0.46944033
       4273.8503      0.48772768
       4274.7334      0.48560454
       4275.6165      0.45749145
       4276.4996      0.48568294
       4277.3827      0.43101003
       4278.2658      0.44570806
       4279.1489      0.44008997
       4280.0320      0.43138883
       4280.9151      0.44319328
       4281.7982      0.42732460
       4282.6813      0.44013279
       4283.5644      0.43266224
       4284.4475      0.44986228
       4285.3306      0.45024532
       4286.2137      0.41842770
       4287.0968      0.44520798
       4287.9799      0.41307514
       4288.8630      0.43388731
       4289.7461      0.43958137
       4290.6292      0.45143830
       4291.5123      0.41161917
       4292.3954      0.42568527
       4293.2785      0.44289969
       4294.1616      0.40625597
       4295.0447      0.36878035
       4295.9278      0.41055853
       4296.8109      0.43090300
       4297.6940      0.43129016
       4298.5771      0.38961466
       4299.4602      0.39761520
       4300.3433      0.41015750
       4301.2264      0.38966859
       4302.1095      0.39412603
       4302.9926      0.40643743
       4303.8757      0.42789808
       4304.7588      0.39872078
       4305.6419      0.32901759
       4306.5250      0.39182129
       4307.4081      0.36894569
       4308.2911      0.36641042
       4309.1742      0.45141342
       4310.0573      0.46515807
       4310.9404      0.48585298
       4311.8235      0.47072614
       4312.7066      0.42380098
       4313.5897      0.44396212
       4314.4728      0.43123910
       4315.3559      0.40681508
       4316.2390      0.38934174
       4317.1221      0.40199119
       4318.0052      0.41357123
       4318.8883      0.40135352
       4319.7714      0.33324062
       4320.6545      0.40399681
       4321.5376      0.41056874
       4322.4207      0.45168472
       4323.3038      0.40418852
       4324.1869      0.39859227
       4325.0700      0.37150566
       4325.9531      0.39248846
       4326.8362      0.38075125
       4327.7193      0.35743594
       4328.6024      0.37576761
       4329.4855      0.39735473
       4330.3686      0.42713036
       4331.2517      0.44433912
       4332.1348      0.41432145
       4333.0179      0.45216098
       4333.9010      0.45589657
       4334.7841      0.39597777
       4335.6672      0.35489079
       4336.5503      0.36750718
       4337.4334      0.36261720
       4338.3165      0.41616927
       4339.1996      0.40088356
       4340.0827      0.33815353
       4340.9658      0.39406249
       4341.8489      0.33710424
       4342.7320      0.40118723
       4343.6150      0.39579030
       4344.4981      0.39857098
       4345.3812      0.39501811
       4346.2643      0.45516233
       4347.1474      0.40005305
       4348.0305      0.38048479
       4348.9136      0.44729244
       4349.7967      0.45138900
       4350.6798      0.41551228
       4351.5629      0.42848088
       4352.4460      0.45509319
       4353.3291      0.45855223
       4354.2122      0.46153052
       4355.0953      0.44388753
       4355.9784      0.44302583
       4356.8615      0.44993000
       4357.7446      0.42675877
       4358.6277      0.45528409
       4359.5108      0.47949155
       4360.3939      0.43018179
       4361.2770      0.44693355
       4362.1601      0.48028498
       4363.0432      0.44082061
       4363.9263      0.43591851
       4364.8094      0.45090525
       4365.6925      0.44614319
       4366.5756      0.41538081
       4367.4587      0.39531904
       4368.3418      0.40462146
       4369.2249      0.42382067
       4370.1080      0.41802565
       4370.9911      0.43650036
       4371.8742      0.40450742
       4372.7573      0.43854683
       4373.6404      0.43098931
       4374.5235      0.39624276
       4375.4066      0.42860563
       4376.2897      0.39944185
       4377.1728      0.40227340
       4378.0558      0.44580500
       4378.9389      0.37217350
       4379.8220      0.41956743
       4380.7051      0.42626988
       4381.5882      0.39090562
       4382.4713      0.46508186
       4383.3544      0.44288356
       4384.2375      0.40675705
       4385.1206      0.45581324
       4386.0037      0.48547979
       4386.8868      0.43740334
       4387.7699      0.44824588
       4388.6530      0.41168293
       4389.5361      0.44506784
       4390.4192      0.46771513
       4391.3023      0.47272649
       4392.1854      0.41195835
       4393.0685      0.41966021
       4393.9516      0.42212564
       4394.8347      0.45668693
       4395.7178      0.44639129
       4396.6009      0.45126460
       4397.4840      0.44345452
       4398.3671      0.39949596
       4399.2502      0.48620365
       4400.1333      0.46178412
       4401.0164      0.44190336
       4401.8995      0.42916734
       4402.7826      0.40208174
       4403.6657      0.52310240
       4404.5488      0.45412498
       4405.4319      0.46514040
       4406.3150      0.40110630
       4407.1981      0.46018576
       4408.0812      0.46167737
       4408.9643      0.43170241
       4409.8474      0.50932215
       4410.7305      0.48311129
       4411.6136      0.48341528
       4412.4966      0.42670348
       4413.3797      0.44307376
       4414.2628      0.46506707
       4415.1459      0.46479502
       4416.0290      0.47827085
       4416.9121      0.46516801
       4417.7952      0.43113434
       4418.6783      0.46237334
       4419.5614      0.45471533
       4420.4445      0.39684315
       4421.3276      0.41568578
       4422.2107      0.41981184
       4423.0938      0.45757331
       4423.9769      0.47509686
       4424.8600      0.42475774
       4425.7431      0.44764001
       4426.6262      0.44527635
       4427.5093      0.46435855
       4428.3924      0.45138295
       4429.2755      0.47793029
       4430.1586      0.42990991
       4431.0417      0.49266080
       4431.9248      0.44203624
       4432.8079      0.45055569
       4433.6910      0.49735325
       4434.5741      0.47280639
       4435.4572      0.43354137
       4436.3403      0.46874181
       4437.2234      0.49125408
       4438.1065      0.46683996
       4438.9896      0.44698899
       4439.8727      0.45785845
       4440.7558      0.43591181
       4441.6389      0.46980135
       4442.5220      0.48366428
       4443.4051      0.44204352
       4444.2882      0.46407661
       4445.1713      0.44854631
       4446.0544      0.40966175
       4446.9375      0.46976906
       4447.8205      0.43035326
       4448.7036      0.43329385
       4449.5867      0.43612945
       4450.4698      0.40388413
       4451.3529      0.50456542
       4452.2360      0.42941307
       4453.1191      0.44836495
       4454.0022      0.47703879
       4454.8853      0.42099164
       4455.7684      0.42534163
       4456.6515      0.48261948
       4457.5346      0.44983518
       4458.4177      0.41703111
       4459.3008      0.48160195
       4460.1839      0.44406260
       4461.0670      0.43833317
       4461.9501      0.44095685
       4462.8332      0.46654362
       4463.7163      0.44822875
       4464.5994      0.51567145
       4465.4825      0.48214994
       4466.3656      0.45360046
       4467.2487      0.40372892
       4468.1318      0.46839058
       4469.0149      0.44430729
       4469.8980      0.43371716
       4470.7811      0.45838337
       4471.6642      0.42293701
       4472.5473      0.48404817
       4473.4304      0.46969006
       4474.3135      0.50632085
       4475.1966      0.46920282
       4476.0797      0.52402907
       4476.9628      0.48480185
       4477.8459      0.46628766
       4478.7290      0.47071090
       4479.6121      0.45158516
       4721.0217       3.9049321
       4722.0074       3.7096608
       4722.9932       3.4492165
       4723.9789       3.3557322
       4724.9646       3.4794141
       4725.9504       3.3640968
       4726.9361       3.3421552
       4727.9218       3.3203281
       4728.9076       3.4930365
       4729.8933       3.5025124
       4730.8790       3.4928162
       4731.8648       3.0760130
       4732.8505       3.2615418
       4733.8363       3.0747242
       4734.8220       3.4512159
       4735.8077       3.3808051
       4736.7935       3.1126090
       4737.7792       3.2135965
       4738.7649       3.1077339
       4739.7507       2.6776658
       4740.7364       3.2762080
       4741.7221       3.5113037
       4742.7079       3.1597899
       4743.6936       3.2346205
       4744.6793       3.1443349
       4745.6651       3.2886231
       4746.6508       3.4045385
       4747.6365       2.9958393
       4748.6223       3.2327720
       4749.6080       2.9061593
       4750.5937       3.3169178
       4751.5795       3.0074864
       4752.5652       2.9438002
       4753.5509       2.9863856
       4754.5367       2.9611310
       4755.5224       2.8803786
       4756.5082       2.8441364
       4757.4939       2.9667543
       4758.4796       2.9051299
       4759.4654       2.7570333
       4760.4511       2.8676588
       4761.4368       2.8462586
       4762.4226       2.8663299
       4763.4083       2.7919240
       4764.3940       2.6409743
       4765.3798       2.7229869
       4766.3655       2.7831595
       4767.3512       2.7371335
       4768.3370       2.8802003
       4769.3227       3.1308678
       4770.3084       2.7725593
       4771.2942       3.1612540
       4772.2799       2.7522641
       4773.2656       2.6384907
       4774.2514       2.4803221
       4775.2371       2.4634864
       4776.2228       3.0369855
       4777.2086       2.9749760
       4778.1943       2.7955426
       4779.1801       2.4708120
       4780.1658       2.9485107
       4781.1515       2.8343430
       4782.1373       2.8519802
       4783.1230       2.7556557
       4784.1087       2.7032878
       4785.0945       2.9034081
       4786.0802       3.0952150
       4787.0659       2.9761939
       4788.0517       3.1226644
       4789.0374       3.2164463
       4790.0231       2.7371647
       4791.0089       2.9706657
       4791.9946       2.7066429
       4792.9803       3.0139326
       4793.9661       3.0139426
       4794.9518       2.5969848
       4795.9375       2.5774227
       4796.9233       2.7111527
       4797.9090       3.2384092
       4798.8947       3.2125406
       4799.8805       3.4703136
       4800.8662       3.1726272
       4801.8520       2.5955795
       4802.8377       2.5263772
       4803.8234       2.1032657
       4804.8092       2.1114777
       4805.7949       2.0852917
       4806.7806       2.0826580
       4807.7664       2.5379677
       4808.7521       2.7118426
       4809.7378       2.7023559
       4810.7236       2.7867037
       4811.7093       2.8528067
       4812.6950       2.8509373
       4813.6808       2.5076379
       4814.6665       2.6742290
       4815.6522       2.6338588
       4816.6380       2.3735655
       4817.6237       2.8641139
       4818.6094       2.6121324
       4819.5952       2.6541902
       4820.5809       2.4403539
       4821.5666       2.4793788
       4822.5524       2.7018899
       4823.5381       2.4257061
       4824.5239       2.0918643
       4825.5096       2.3168671
       4826.4953       2.5531207
       4827.4811       2.4130052
       4828.4668       2.1132133
       4829.4525       1.9072988
       4830.4383       2.4585404
       4831.4240       3.1062603
       4832.4097       3.9655971
       4833.3955       5.3459499
       4834.3812       5.4255236
       4835.3669       5.7340395
       4836.3527       5.4070194
       4837.3384       4.2709179
       4838.3241       3.1295084
       4839.3099       2.5581761
       4840.2956       2.6737108
       4841.2813       2.3227879
       4842.2671       2.0129071
       4843.2528       2.0597598
       4844.2385       1.9945859
       4845.2243       2.3899321
       4846.2100       2.3627983
       4847.1957       2.5721149
       4848.1815       2.2546627
       4849.1672       2.0091637
       4850.1530       2.2167976
       4851.1387       2.3378020
       4852.1244       2.3868948
       4853.1102       2.5329006
       4854.0959       2.5291097
       4855.0816       2.6426530
       4856.0674       2.4423025
       4857.0531       2.3305761
       4858.0388       2.3668880
       4859.0246       2.5063265
       4860.0103       2.3021865
       4860.9960       2.5772675
       4861.9818       2.3519558
       4862.9675       2.5232068
       4863.9532       2.1090671
       4864.9390       2.2418936
       4865.9247       2.2971853
       4866.9104       2.3064301
       4867.8962       2.2222007
       4868.8819       2.3305202
       4869.8676       2.4606745
       4870.8534       2.4645429
       4871.8391       2.7340832
       4872.8249       2.4787877
       4873.8106       2.6565037
       4874.7963       2.5417552
       4875.7821       2.3877086
       4876.7678       2.5496942
       4877.7535       2.3548260
       4878.7393       2.5972478
       4879.7250       2.4589144
       4880.7107       2.4846723
       4881.6965       2.5356252
       4882.6822       2.5583265
       4883.6679       2.5838007
       4884.6537       2.9618274
       4885.6394       2.3738595
       4886.6251       2.6388439
       4887.6109       2.4554094
       4888.5966       2.6636071
       4889.5823       2.5982058
       4890.5681       2.1643611
       4891.5538       2.5576608
       4892.5395       2.3792198
       4893.5253       2.4048264
       4894.5110       2.0662975
       4895.4968       2.4491254
       4896.4825       2.0042606
       4897.4682       2.2934363
       4898.4540       2.5301079
       4899.4397       2.4898397
       4900.4254       2.2825240
       4901.4112       2.3997090
       4902.3969       2.3213622
       4903.3826       2.5951391
       4904.3684       2.3968509
       4905.3541       2.4026432
       4906.3398       2.7871450
       4907.3256       2.9647906
       4908.3113       2.5193006
       4909.2970       2.5241367
       4910.2828       2.3458655
       4911.2685       2.7326955
       4912.2542       2.3119874
       4913.2400       2.5040654
       4914.2257       2.2544511
       4915.2114       2.3407440
       4916.1972       2.4013841
       4917.1829       2.4462191
       4918.1687       2.2371562
       4919.1544       2.7766286
       4920.1401       2.3156948
       4921.1259       2.6196592
       4922.1116       2.4209253
       4923.0973       2.5289941
       4924.0831       2.6029101
       4925.0688       2.4089370
       4926.0545       2.4681871
       4927.0403       2.5648444
       4928.0260       2.6047947
       4929.0117       2.2568189
       4929.9975       2.2597535
       4930.9832       2.5045343
       4931.9689       3.1238477
       4932.9547       3.3167269
       4933.9404       3.7853951
       4934.9261       4.3574101
       4935.9119       4.2856662
       4936.8976       4.2494924
       4937.8833       4.0262399
       4938.8691       3.0403534
       4939.8548       2.8522971
       4940.8406       2.5157184
       4941.8263       2.4044758
       4942.8120       2.6176585
       4943.7978       2.1298424
       4944.7835       2.5031066
       4945.7692       2.4549521
       4946.7550       2.3305509
       4947.7407       2.5331765
       4948.7264       2.3352658
       4949.7122       2.3175739
       4950.6979       2.0795500
       4951.6836       2.7123477
       4952.6694       2.5401193
       4953.6551       2.6253411
       4954.6408       2.7402766
       4955.6266       2.4740498
       4956.6123       2.8193181
       4957.5980       2.1451383
       4958.5838       2.2993921
       4959.5695       2.3583957
       4960.5552       2.6889616
       4961.5410       2.4565692
       4962.5267       2.5503435
       4963.5125       2.4698370
       4964.4982       2.5056612
       4965.4839       2.6505548
       4966.4697       2.2667212
       4967.4554       2.4810749
       4968.4411       2.6208014
       4969.4269       2.5529260
       4970.4126       2.4557830
       4971.3983       2.3130592
       4972.3841       2.5139723
       4973.3698       2.4937963
       4974.3555       2.6504412
       4975.3413       2.4168077
       4976.3270       2.6539215
       4977.3127       2.8185934
       4978.2985       2.1464268
       4979.2842       2.6742282
       4980.2699       2.4203484
       4981.2557       3.7134725
       4982.2414       5.4628583
       4983.2271       6.9167695
       4984.2129       7.7707988
       4985.1986       8.4244778
       4986.1843       7.9841510
       4987.1701       6.5512349
       4988.1558       4.8069184
       4989.1416       3.7468350
       4990.1273       2.9538608
       4991.1130       2.6165224
       4992.0988       2.5362891
       4993.0845       2.7658762
       4994.0702       2.6910350
       4995.0560       2.3933810
       4996.0417       2.6315467
       4997.0274       2.6684716
       4998.0132       2.8681931
       4998.9989       2.5928003
       4999.9846       2.5229288
       5000.9704       2.9058154
       5001.9561       2.5188003
       5002.9418       2.6236942
       5003.9276       2.5953386
       5004.9133       2.9019505
       5005.8990       2.7499403
       5006.8848       2.8285126
       5007.8705       2.7412027
       5008.8562       2.3686514
       5009.8420       2.6198993
       5010.8277       2.9389499
       5011.8135       2.6698378
       5012.7992       2.6636516
       5013.7849       2.7297415
       5014.7707       2.8282740
       5015.7564       2.6058649
       5016.7421       2.6353984
       5017.7279       2.5610893
       5018.7136       2.5552484
       5019.6993       2.5158397
       5020.6851       3.0647114
       5021.6708       2.6179963
       5022.6565       2.7674303
       5023.6423       2.6937545
       5024.6280       2.7118369
       5025.6137       2.4909485
       5026.5995       3.1297573
       5027.5852       2.6256427
       5028.5709       2.6355725
       5029.5567       2.5296871
       5030.5424       2.7300590
       5031.5281       2.5945081
       5032.5139       2.5003941
       5033.4996       2.8325508
       5034.4854       2.6119670
       5035.4711       3.0216860
       5036.4568       2.8474043
       5037.4426       2.8799641
       5038.4283       2.7779920
       5039.4140       2.6045427
       5040.3998       2.8009639
       5041.3855       2.6752413
       5042.3712       2.6625278
       5043.3570       2.8025612
       5044.3427       2.5345490
       5045.3284       2.4343020
       5046.3142       2.4593525
       5047.2999       2.9164589
       5048.2856       2.6608849
       5049.2714       2.7791077
       5050.2571       3.0850243
       5051.2428       2.8375059
       5052.2286       2.7168967
       5053.2143       2.8405915
       5054.2000       2.6510903
       5055.1858       2.4440704
       5056.1715       2.9247604
       5057.1573       2.6805482
       5058.1430       2.5514076
       5059.1287       2.5052717
       5060.1145       2.5613406
       5061.1002       2.8862595
       5062.0859       2.8227143
       5063.0717       2.8843833
       5064.0574       2.8186125
       5065.0431       2.6078831
       5066.0289       2.6318432
       5067.0146       2.7683071
       5068.0003       2.6797378
       5068.9861       2.7019399
       5069.9718       2.6793743
       5070.9575       2.7798730
       5071.9433       2.8359027
       5072.9290       2.5283773
       5073.9147       2.6795819
       5074.9005       2.7510941
       5075.8862       2.9038858
       5076.8719       2.6187144
       5077.8577       2.5992956
       5078.8434       2.1831229
       5079.8292       2.4955267
       5080.8149       2.3293083
       5081.8006       2.4663163
       5082.7864       2.6859472
       5083.7721       2.6233611
       5084.7578       2.6923479
       5085.7436       2.5437539
       5086.7293       2.4025284
       5087.7150       2.7738903
       5088.7008       2.5960487
       5089.6865       2.2512894
       5090.6722       2.3962122
       5091.6580       2.7048335
       5092.6437       2.5180229
       5093.6294       2.4647290
       5094.6152       2.5810599
       5095.6009       2.8982573
       5096.5866       2.7579113
       5097.5724       2.5006150
       5098.5581       2.8725033
       5099.5438       2.9263472
       5100.5296       2.7894281
       5101.5153       2.5934568
       5102.5011       2.9247629
       5103.4868       2.9616144
       5104.4725       2.5789180
       5105.4583       2.5090212
       5106.4440       2.4097144
       5107.4297       2.8531225
       5108.4155       2.5116700
       5109.4012       2.6620949
       5110.3869       2.5929041
       5111.3727       2.3846446
       5112.3584       2.4284330
       5113.3441       2.5456707
       5114.3299       2.8032812
       5115.3156       2.8705383
       5116.3013       2.7470632
       5117.2871       2.5696559
       5118.2728       2.9489243
       5119.2585       2.6882001
       5120.2443       2.3883990
       5121.2300       2.6542928
       5122.2157       2.5739290
       5123.2015       2.6321777
       5124.1872       2.6256025
       5125.1730       2.7676090
       5126.1587       2.4937202
       5127.1444       2.6640424
       5128.1302       2.6786088
       5129.1159       2.3319186
       5130.1016       2.4420550
       5131.0874       2.4725399
       5132.0731       2.5413872
       5133.0588       2.7723923
       5134.0446       2.3148104
       5135.0303       2.4717325
       5136.0160       2.6278374
       5137.0018       2.6554087
       5137.9875       2.7965331
       5138.9732       2.7726241
       5139.9590       2.9065157
       5140.9447       2.9030703
       5141.9304       2.9037215
       5142.9162       2.9113398
       5143.9019       2.6028924
       5144.8876       2.9581007
       5145.8734       2.1531906
       5146.8591       2.6354711
       5147.8448       1.7790086
       5148.8306       2.4614385
       5149.8163       2.1143706
       5150.8021       2.3434386
       5151.7878       2.3179595
       5152.7735       1.8839386
       5153.7593       1.9679034
       5154.7450       2.2297463
       5155.7307       2.1624089
       5156.7165       2.4883994
       5157.7022       2.4740740
       5158.6879       2.2366823
       5159.6737       2.3241090
       5160.6594       2.3618358
       5161.6451       2.5801174
       5162.6309       2.5748765
       5163.6166       2.5014928
       5164.6023       2.3853109
       5165.5881       2.5436799
       5166.5738       2.1141081
       5167.5595       2.5642733
       5168.5453       2.5234005
       5169.5310       2.4285629
       5170.5167       2.5572017
       5171.5025       2.5149264
       5172.4882       2.5916178
       5173.4740       2.4742498
       5174.4597       2.6944742
       5175.4454       2.3496925
       5176.4312       2.4449949
       5177.4169       2.7719745
       5178.4026       2.7040639
       5179.3884       2.3521169
       5180.3741       2.6854781
       5181.3598       2.7230507
       5182.3456       2.6580588
       5183.3313       2.7426921
       5184.3170       2.7046677
       5185.3028       2.7346344
       5186.2885       2.7108135
       5187.2742       2.7911219
       5188.2600       2.4337970
       5189.2457       2.4737794
       5190.2314       2.3139025
       5191.2172       2.4797725
       5192.2029       2.5406850
       5193.1886       2.8119850
       5194.1744       2.8613834
       5195.1601       2.5641572
       5196.1459       2.7474013
       5197.1316       2.4475009
       5198.1173       2.4907921
       5199.1031       2.5808013
       5200.0888       2.4229838
       5201.0745       2.9213678
       5202.0603       2.6212888
       5203.0460       2.6097227
       5204.0317       3.2224978
       5205.0175       2.7487426
       5206.0032       2.6700986
       5206.9889       2.7658165
       5207.9747       2.6165009
       5208.9604       2.5275218
       5209.9461       2.4601632
       5210.9319       2.6635693
       5211.9176       2.2630573
       5212.9033       2.4907509
       5213.8891       2.6544765
       5214.8748       2.4629819
       5215.8605       2.7030931
       5216.8463       2.5028233
       5217.8320       2.4526326
       5218.8178       2.6766887
       5219.8035       2.5591320
       5220.7892       2.5534317
       5221.7750       2.5509343
       5222.7607       2.6377381
       5223.7464       2.7395848
       5224.7322       2.7688576
       5225.7179       2.5238596
       5226.7036       2.6495504
       5227.6894       2.5719189
       5228.6751       2.7974130
       5229.6608       2.4981930
       5230.6466       2.5973648
       5231.6323       2.5833990
       5232.6180       2.4298023
       5233.6038       2.5402233
       5234.5895       2.4812160
       5235.5752       2.5482377
       5236.5610       2.4606032
       5237.5467       2.6401468
       5238.5324       2.5508860
       5239.5182       2.5592687
       5240.5039       2.4634262
       5241.4897       2.4355024
       5242.4754       2.6532979
       5243.4611       2.8448977
       5244.4469       2.7368567
       5245.4326       2.6927095
       5246.4183       2.2862047
       5247.4041       2.3266190
       5248.3898       2.2298534
       5249.3755       2.1694488
       5250.3613       2.2326960
       5251.3470       2.4674119
       5252.3327       2.3703049
       5253.3185       2.2838083
       5254.3042       2.5811582
       5255.2899       2.2858148
       5256.2757       2.3187666
       5257.2614       2.5331013
       5258.2471       2.4512628
       5259.2329       2.3961876
       5260.2186       2.6446947
       5261.2043       2.5054275
       5262.1901       2.6647541
       5263.1758       2.7842874
       5264.1616       2.7638317
       5265.1473       2.8234701
       5266.1330       2.4761799
       5267.1188       2.7974983
       5268.1045       2.5840190
       5269.0902       2.5001070
       5270.0760       2.3423898
       5271.0617       2.4349600
       5272.0474       2.5225791
       5273.0332       2.6761142
       5274.0189       2.7803492
       5275.0046       2.7806987
       5275.9904       2.7234862
       5276.9761       2.5587398
       5277.9618       2.8356891
       5278.9476       2.4042683
       5279.9333       2.5281206
       5280.9190       2.7440054
       5281.9048       2.5057300
       5282.8905       2.5348913
       5283.8762       2.3728727
       5284.8620       2.5864971
       5285.8477       2.6089878
       5286.8334       2.5547306
       5287.8192       2.4178985
       5288.8049       2.4778140
       5289.7907       2.6501105
       5290.7764       2.7708697
       5291.7621       2.6291540
       5292.7479       2.4994751
       5293.7336       2.4788741
       5294.7193       2.6971927
       5295.7051       2.3066263
       5296.6908       2.4876653
       5297.6765       2.3168440
       5298.6623       2.1231862
       5299.6480       2.3522657
       5300.6337       2.2256834
       5301.6195       2.2796794
       5302.6052       2.2584957
       5303.5909       2.2090742
       5304.5767       2.2227666
       5305.5624       2.3446023
       5306.5481       2.4088605
       5307.5339       2.4427776
       5308.5196       2.4370294
       5309.5053       2.4395655
       5310.4911       2.3594262
       5311.4768       2.4452216
       5312.4626       2.4587282
       5313.4483       2.3341905
       5314.4340       2.3183949
       5315.4198       2.3430941
       5316.4055       2.5020275
       5317.3912       2.6274579
       5318.3770       2.4758771
       5319.3627       2.5183949
       5320.3484       2.6656144
       5321.3342       2.5011028
       5322.3199       2.6124323
       5323.3056       2.2479461
       5324.2914       2.4820038
       5325.2771       2.2820802
       5326.2628       2.3046707
       5327.2486       2.3535325
       5328.2343       2.5843152
       5329.2200       2.4674156
       5330.2058       2.4076429
       5331.1915       2.4601490
       5332.1772       2.5489300
       5333.1630       2.5037979
       5334.1487       2.4025606
       5335.1345       2.5018737
       5336.1202       2.4022024
       5337.1059       2.8552153
       5338.0917       2.7730786
       5339.0774       2.7496545
       5340.0631       2.5914054
       5341.0489       2.5129021
       5342.0346       2.5923571
       5343.0203       2.6835857
       5344.0061       2.6131936
       5344.9918       2.7326810
       5345.9775       2.6950444
       5346.9633       2.5055944
       5347.9490       2.4303393
       5348.9347       2.2672577
       5349.9205       2.5097173
       5350.9062       2.5667444
       5351.8919       2.4899085
       5352.8777       2.4648565
       5353.8634       2.4524805
       5354.8491       2.6111066
       5355.8349       2.4887771
       5356.8206       2.4074495
       5357.8064       2.4266042
       5358.7921       2.3293650
       5359.7778       2.4275525
       5360.7636       2.5276621
       5361.7493       2.4992788
       5362.7350       2.6024408
       5363.7208       2.7536510
       5364.7065       2.5050394
       5365.6922       2.6381549
       5366.6780       2.4691595
       5367.6637       2.5351194
       5368.6494       2.3326047
       5369.6352       2.5485441
       5370.6209       2.5331553
       5371.6066       2.5901176
       5372.5924       2.4845067
       5373.5781       2.6159949
       5374.5638       2.7750637
       5375.5496       2.4936488
       5376.5353       2.4146843
       5377.5210       2.5026965
       5378.5068       2.7015324
       5379.4925       2.3445786
       5380.4783       2.6555693
       5381.4640       2.5186354
       5382.4497       2.5739610
       5383.4355       2.3021453
       5384.4212       2.3545149
       5385.4069       2.4314599
       5386.3927       2.5883914
       5387.3784       2.3557591
       5388.3641       2.2692219
       5389.3499       2.3785856
       5390.3356       2.3968673
       5391.3213       2.4849199
       5392.3071       2.4260459
       5393.2928       2.2435598
       5394.2785       2.4245014
       5395.2643       2.4098810
       5396.2500       2.5572805
       5397.2357       2.8089620
       5398.2215       2.5718334
       5399.2072       2.5981703
       5400.1929       2.5175074
       5401.1787       2.4756709
       5402.1644       2.3824463
       5403.1502       2.3620574
       5404.1359       2.3745904
       5405.1216       2.5854238
       5406.1074       2.4881134
       5407.0931       2.6753067
       5408.0788       2.6117013
       5409.0646       2.6229751
       5410.0503       2.5593960
       5411.0360       2.4838572
       5412.0218       2.4042682
       5413.0075       2.4721411
       5413.9932       2.5989448
       5414.9790       2.4891828
       5415.9647       2.3650868
       5416.9504       2.5149388
       5417.9362       2.4937010
       5418.9219       2.2782505
       5419.9076       2.3435106
       5420.8934       2.5016975
       5421.8791       2.3938235
       5422.8648       2.3466288
       5423.8506       2.3077760
       5424.8363       2.3277898
       5425.8220       2.2956926
       5426.8078       2.2674774
       5427.7935       2.6657212
       5428.7793       2.3438104
       5429.7650       2.1707293
       5430.7507       2.1226242
       5431.7365       2.2274799
       5432.7222       2.2612129
       5433.7079       2.1278807
       5434.6937       2.2965118
       5435.6794       2.5646877
       5436.6651       2.6349991
       5437.6509       2.6211503
       5438.6366       2.4530343
       5439.6223       2.4347467
       5440.6081       2.4216424
       5441.5938       2.2884744
       5442.5795       2.3054769
       5443.5653       2.4171235
       5444.5510       2.4309965
       5445.5367       2.3832261
       5446.5225       2.4451999
       5447.5082       2.3542686
       5448.4939       2.3905722
       5449.4797       2.3244606
       5450.4654       2.3824662
       5451.4512       2.4377478
       5452.4369       2.4788669
       5453.4226       2.6337057
       5454.4084       2.4569800
       5455.3941       2.4004403
       5456.3798       2.4703270
       5457.3656       2.3669844
       5458.3513       2.3752985
       5459.3370       2.2714766
       5460.3228       2.3469192
       5461.3085       2.2823734
       5462.2942       2.2704436
       5463.2800       2.4837561
       5464.2657       2.2474166
       5465.2514       2.3595740
       5466.2372       2.2565874
       5467.2229       2.4091731
       5468.2086       2.3815449
       5469.1944       2.4583882
       5470.1801       2.5522641
       5471.1658       2.8198150
       5472.1516       2.5463455
       5473.1373       2.6004864
       5474.1231       2.5308323
       5475.1088       2.4312004
       5476.0945       2.4466320
       5477.0803       2.5168229
       5478.0660       2.4503558
       5479.0517       2.6210925
       5480.0375       2.3959717
       5481.0232       2.4758999
       5482.0089       2.3375284
       5482.9947       2.3441755
       5483.9804       2.5726415
       5484.9661       2.7069761
       5485.9519       2.4670465
       5486.9376       2.5925686
       5487.9233       2.6320243
       5488.9091       2.4977169
       5489.8948       2.2715341
       5490.8805       2.3999632
       5491.8663       2.3952315
       5492.8520       2.1161405
       5493.8377       2.1987475
       5494.8235       2.1935633
       5495.8092       2.2252776
       5496.7950       2.2442054
       5497.7807       2.1017054
       5498.7664       2.1909316
       5499.7522       2.3876825
       5500.7379       2.4207619
       5501.7236       2.4012680
       5502.7094       2.4597719
       5503.6951       2.4027990
       5504.6808       2.5195793
       5505.6666       2.1034588
       5506.6523       2.3130949
       5507.6380       2.3914358
       5508.6238       2.5019295
       5509.6095       2.5702592
       5510.5952       2.2833279
       5511.5810       2.3111102
       5512.5667       2.4750436
       5513.5524       2.3294723
       5514.5382       2.3545485
       5515.5239       2.3517096
       5516.5096       2.3062471
       5517.4954       2.3783156
       5518.4811       2.3701042
       5519.4669       2.5272551
       5520.4526       2.4511247
       5521.4383       2.5254101
       5522.4241       2.6073344
       5523.4098       2.6319779
       5524.3955       2.7334798
       5525.3813       2.6973225
       5526.3670       2.6077752
       5527.3527       2.4469856
       5528.3385       2.3185826
       5529.3242       2.4058234
       5530.3099       2.3014103
       5531.2957       2.5826961
       5532.2814       2.6742151
       5533.2671       2.3770227
       5534.2529       2.4652340
       5535.2386       2.5657691
       5536.2243       2.4143406
       5537.2101       2.6569212
       5538.1958       2.4380237
       5539.1815       2.4015287
       5540.1673       2.4339320
       5541.1530       2.5112208
       5542.1388       2.3626008
       5543.1245       2.4675675
       5544.1102       2.3766837
       5545.0960       2.4300356
       5546.0817       2.3433250
       5547.0674       2.5208732
       5548.0532       2.4697837
       5549.0389       2.3810111
       5550.0246       2.2785153
       5551.0104       2.4108699
       5551.9961       2.4870632
       5552.9818       2.4264840
       5553.9676       2.3657373
       5554.9533       2.4024527
       5555.9390       2.4611531
       5556.9248       2.3692718
       5557.9105       2.2344706
       5558.8962       2.3506482
       5559.8820       2.2717791
       5560.8677       2.3905382
       5561.8534       2.3540009
       5562.8392       2.2421690
       5563.8249       2.3293764
       5564.8107       2.3612834
       5565.7964       2.3044272
       5566.7821       2.2960527
       5567.7679       2.4481647
       5568.7536       2.4031425
       5569.7393       2.5213401
       5570.7251       2.4023575
       5571.7108       2.4901130
       5572.6965       2.2690547
       5573.6823       2.1982315
       5574.6680       2.3560526
       5575.6537       2.1334037
       5576.6395       1.9764074
       5577.6252       2.1000175
       5578.6109       2.4882985
       5579.5967       2.3476511
       5580.5824       2.1841206
       5581.5681       2.4424242
       5582.5539       2.2969074
       5583.5396       2.6450478
       5584.5253       2.5169720
       5585.5111       2.3116888
       5586.4968       2.2412248
       5587.4825       2.2366645
       5588.4683       2.7545693
       5589.4540       2.3819547
       5590.4398       1.9381976
       5591.4255       2.2852764
       5592.4112       2.3852522
       5593.3970       2.1700940
       5594.3827       2.0657933
       5595.3684       2.5709513
       5596.3542       2.4132783
       5597.3399       2.2730831
       5598.3256       2.3990283
       5599.3114       2.5565507
       5600.2971       2.5803392
       5601.2828       2.4564472
       5602.2686       2.4897267
       5603.2543       2.6667630
       5604.2400       2.7670788
       5605.2258       2.5400527
       5606.2115       2.4964550
       5607.1972       2.3406397
       5608.1830       2.5602699
       5609.1687       2.5114102
       5610.1544       2.6963437
       5611.1402       2.6031855
       5612.1259       2.4470463
       5613.1117       2.4515797
       5614.0974       2.5105405
       5615.0831       2.7077774
       5616.0689       2.4687511
       5617.0546       2.5378255
       5618.0403       2.4103705
       5619.0261       2.1222432
       5620.0118       2.1810242
       5620.9975       2.0298471
       5621.9833       1.9420134
       5622.9690       2.0199338
       5623.9547       1.9812589
       5624.9405       2.0156719
       5625.9262       1.8416089
       5626.9119       1.8953192
       5627.8977       1.8059676
       5628.8834       1.7279471
       5629.8691       1.9077841
       5630.8549       2.0343564
       5631.8406       2.2365071
       5632.8263       2.1577782
       5633.8121       2.3012758
       5634.7978       2.3433012
       5635.7836       2.3508571
       5636.7693       2.4023454
       5637.7550       2.1423576
       5638.7408       1.9581659
       5639.7265       2.2371401
       5640.7122       2.1965529
       5641.6980       2.1380950
       5642.6837       2.1583797
       5643.6694       2.0630624
       5644.6552       2.0803507
       5645.6409       2.1780045
       5646.6266       2.2981320
       5647.6124       2.4378067
       5648.5981       2.1557641
       5649.5838       2.1892657
       5650.5696       2.1605888
       5651.5553       2.1392332
       5652.5410       2.0479891
       5653.5268       2.2596650
       5654.5125       2.1158779
       5655.4982       2.1515003
       5656.4840       2.2679406
       5657.4697       2.4631280
       5658.4555       2.4161788
       5659.4412       2.4055032
       5660.4269       2.1696674
       5661.4127       2.3171322
       5662.3984       2.2948560
       5663.3841       2.2564623
       5664.3699       2.1275032
       5665.3556       2.2570418
       5666.3413       2.2598132
       5667.3271       2.3703245
       5668.3128       2.1784900
       5669.2985       2.4052127
       5670.2843       2.5312426
       5671.2700       2.4333574
       5672.2557       2.5886097
       5673.2415       2.4587863
       5674.2272       2.4537635
       5675.2129       2.4920318
       5676.1987       2.5222741
       5677.1844       2.5108370
       5678.1701       2.5521561
       5679.1559       2.5626091
       5680.1416       2.5136829
       5681.1274       2.5105272
       5682.1131       2.3400384
       5683.0988       2.6568979
       5684.0846       2.5915784
       5685.0703       2.4951535
       5686.0560       2.6728383
       5687.0418       2.5528385
       5688.0275       2.4493330
       5689.0132       2.7593740
       5689.9990       2.7184614
       5690.9847       2.7376281
       5691.9704       2.6354349
       5692.9562       2.6967691
       5693.9419       2.4851781
       5694.9276       2.5893649
       5695.9134       2.4162514
       5696.8991       2.4445049
       5697.8848       2.5266371
       5698.8706       2.3811253
       5699.8563       2.4128988
       5700.8420       2.4494495
       5701.8278       2.4592970
       5702.8135       2.4236728
       5703.7993       2.5486897
       5704.7850       2.5482387
       5705.7707       2.3758624
       5706.7565       2.1970226
       5707.7422       2.5173740
       5708.7279       2.2452148
       5709.7137       2.4616547
       5710.6994       2.4694111
       5711.6851       2.6806121
       5712.6709       2.4695228
       5713.6566       2.5024976
       5714.6423       2.7609117
       5715.6281       2.5907519
       5716.6138       2.5756442
       5717.5995       2.7194518
       5718.5853       2.5407864
       5719.5710       2.3475552
       5720.5567       2.5457518
       5721.5425       2.5778770
       5722.5282       2.4813587
       5723.5139       2.4698416
       5724.4997       2.4732769
       5725.4854       2.4108756
       5726.4711       2.5274451
       5727.4569       2.5258550
       5728.4426       2.7015459
       5729.4284       2.3243318
       5730.4141       2.6238216
       5731.3998       2.7093011
       5732.3856       2.7136231
       5733.3713       2.4462787
       5734.3570       2.6752109
       5735.3428       2.5454989
       5736.3285       2.3643358
       5737.3142       2.4539154
       5738.3000       2.1777909
       5739.2857       2.2812874
       5740.2714       2.5661070
       5741.2572       2.5057987
       5742.2429       2.4085951
       5743.2286       2.4477222
       5744.2144       2.4923209
       5745.2001       2.6557070
       5746.1858       2.5744283
       5747.1716       2.3972879
       5748.1573       2.3146870
       5749.1430       2.4073440
       5750.1288       2.3530658
       5751.1145       2.3905687
       5752.1003       2.4438203
       5753.0860       2.2557645
       5754.0717       2.4078247
       5755.0575       2.3887411
       5756.0432       2.4010932
       5757.0289       2.3994482
       5758.0147       2.2288092
       5759.0004       2.2563495
       5759.9861       2.2269034
       5760.9719       2.1777463
       5761.9576       2.4635713
       5762.9433       2.3401706
       5763.9291       2.3462026
       5764.9148       2.5581887
       5765.9005       2.6025604
       5766.8863       2.3905591
       5767.8720       2.3639209
       5768.8577       2.3571594
       5769.8435       2.2787674
       5770.8292       2.5088541
       5771.8149       2.3958627
       5772.8007       2.4973836
       5773.7864       2.4348438
       5774.7722       2.4459235
       5775.7579       2.3281476
       5776.7436       2.4006675
       5777.7294       2.2991522
       5778.7151       2.5200409
       5779.7008       2.3475329
       5780.6866       2.2880588
       5781.6723       2.3628044
       5782.6580       2.5779685
       5783.6438       2.4862028
       5784.6295       2.4776798
       5785.6152       2.4655840
       5786.6010       2.4394044
       5787.5867       2.4864450
       5788.5724       2.4848741
       5789.5582       2.4469238
       5790.5439       2.7569069
       5791.5296       2.7798458
       5792.5154       2.6292348
       5793.5011       2.6469200
       5794.4868       2.7234471
       5795.4726       2.6120172
       5796.4583       2.4858880
       5797.4441       2.7080122
       5798.4298       2.7118084
       5799.4155       2.6604353
       5800.4013       2.7622446
       5801.3870       2.8728437
       5802.3727       2.7674871
       5803.3585       2.7314803
       5804.3442       2.8257703
       5805.3299       2.8520278
       5806.3157       2.6732197
       5807.3014       2.6440238
       5808.2871       2.6254280
       5809.2729       2.6119628
       5810.2586       2.5585069
       5811.2443       2.4738720
       5812.2301       2.6506263
       5813.2158       2.5716979
       5814.2015       2.6229839
       5815.1873       2.6871948
       5816.1730       2.4020495
       5817.1587       2.5067606
       5818.1445       2.6344410
       5819.1302       2.6651676
       5820.1160       2.5893469
       5821.1017       2.7996922
       5822.0874       2.6207005
       5823.0732       2.4725417
       5824.0589       2.3677489
       5825.0446       2.4411118
       5826.0304       2.6241354
       5827.0161       2.4432363
       5828.0018       2.6009776
       5828.9876       2.5309116
       5829.9733       2.6233972
       5830.9590       2.7095754
       5831.9448       2.5177578
       5832.9305       2.5665603
       5833.9162       2.6193548
       5834.9020       2.6125217
       5835.8877       2.7009197
       5836.8734       2.6264982
       5837.8592       2.6381552
       5838.8449       2.4804618
       5839.8306       2.4276085
       5840.8164       2.5308672
       5841.8021       2.5045315
       5842.7879       2.5363097
       5843.7736       2.5106809
       5844.7593       2.2870600
       5845.7451       2.4668176
       5846.7308       2.4219774
       5847.7165       2.4721569
       5848.7023       2.4579926
       5849.6880       2.3686526
       5850.6737       2.3705205
       5851.6595       2.4064118
       5852.6452       2.4947311
       5853.6309       2.3760551
       5854.6167       2.4803731
       5855.6024       2.4944449
       5856.5881       2.3875575
       5857.5739       2.5060166
       5858.5596       2.4135847
       5859.5453       2.6494192
       5860.5311       2.5232457
       5861.5168       2.7367905
       5862.5025       2.6493649
       5863.4883       2.6488559
       5864.4740       2.6422964
       5865.4597       2.5504105
       5866.4455       2.6842288
       5867.4312       2.9987640
       5868.4170       2.9193135
       5869.4027       2.8728965
       5870.3884       2.7352586
       5871.3742       2.6376912
       5872.3599       2.6053913
       5873.3456       2.4758370
       5874.3314       2.3709123
       5875.3171       2.3562404
       5876.3028       2.1910688
       5877.2886       2.2352002
       5878.2743       2.4098513
       5879.2600       2.3843492
       5880.2458       2.3763332
       5881.2315       2.3296492
       5882.2172       2.1692270
       5883.2030       2.0690985
       5884.1887       2.2424557
       5885.1744       2.1654605
       5886.1602       2.2529527
       5887.1459       2.2006784
       5888.1316       2.1488413
       5889.1174       1.9837146
       5890.1031       2.2950009
       5891.0889       2.3983047
       5892.0746       2.7422973
       5893.0603       2.7477945
       5894.0461       2.6418849
       5895.0318       2.3500178
       5896.0175       2.1299445
       5897.0033       2.3443162
       5897.9890       2.4069621
       5898.9747       2.5355078
       5899.9605       2.6357482
       5900.9462       2.3872976
       5901.9319       2.4425956
       5902.9177       2.3202246
       5903.9034       2.2860522
       5904.8891       2.4088386
       5905.8749       2.2514806
       5906.8606       2.6253032
       5907.8463       2.3987835
       5908.8321       2.3019255
       5909.8178       2.5013221
       5910.8035       2.5559720
       5911.7893       2.5628013
       5912.7750       2.5644402
       5913.7608       2.4090078
       5914.7465       2.3533234
       5915.7322       2.4863136
       5916.7180       2.5009949
       5917.7037       2.4991609
       5918.6894       2.4615374
       5919.6752       2.3650374
       5920.6609       2.3705881
       5921.6466       2.3335611
       5922.6324       2.2783232
       5923.6181       2.3039718
       5924.6038       2.2157666
       5925.5896       2.1875348
       5926.5753       2.5146989
       5927.5610       1.9535068
       5928.5468       1.7094968
       5929.5325       1.3702357
       5930.5182      0.72790216
       5931.5040      0.40387611
       5932.4897       1.4854351
       5933.4754       2.3409280
       5934.4612       2.7743745
       5935.4469       2.9581382
       5936.4327       2.4650522
       5937.4184       2.7128021
       5938.4041       2.5712764
       5939.3899       2.4059250
       5940.3756       2.3947995
       5941.3613       2.4639240
       5942.3471       2.7520900
       5943.3328       2.6771399
       5944.3185       2.4937534
       5945.3043       2.5419983
       5946.2900       2.4282746
       5947.2757       2.3650290
       5948.2615       2.4537012
       5949.2472       2.4865067
       5950.2329       2.3320803
       5951.2187       2.4453362
       5952.2044       2.5569288
       5953.1901       2.5224315
       5954.1759       2.4630815
       5955.1616       2.6375008
       5956.1473       2.4493415
       5957.1331       2.2331570
       5958.1188       2.0040123
       5959.1046       2.4086694
       5960.0903       2.7040860
       5961.0760       2.4887484
       5962.0618       2.6624395
       5963.0475       2.5256053
       5964.0332       2.9507849
       5965.0190       2.6954147
       5966.0047       2.5390701
       5966.9904       2.4940826
       5967.9762       2.2802560
       5968.9619       2.5050626
       5969.9476       2.4399519
       5970.9334       2.5347085
       5971.9191       2.5491339
       5972.9048       2.4989170
       5973.8906       2.7274765
       5974.8763       2.5721358
       5975.8620       2.2655940
       5976.8478       2.5669345
       5977.8335       2.5912592
       5978.8192       2.4450069
       5979.8050       2.3807852
       5980.7907       2.4183012
       5981.7765       2.2411816
       5982.7622       2.3965020
       5983.7479       2.4752069
       5984.7337       2.4100024
       5985.7194       2.6412983
       5986.7051       2.6088687
       5987.6909       2.5245671
       5988.6766       2.5490231
       5989.6623       2.5547984
       5990.6481       2.5320595
       5991.6338       2.4906192
       5992.6195       2.3748638
       5993.6053       2.3721749
       5994.5910       2.5274824
       5995.5767       2.2219165
       5996.5625       2.1130208
       5997.5482       2.4034614
       5998.5339       2.2962347
       5999.5197       2.2700911
       6000.5054       2.4198361
       6001.4911       2.3084458
       6002.4769       2.1899254
       6003.4626       2.0858661
       6004.4484       1.7310173
       6005.4341       1.7758970
       6006.4198       2.4279592
       6007.4056       2.6593204
       6008.3913       2.5237915
       6009.3770       2.4630514
       6010.3628       2.4595067
       6011.3485       2.8827185
       6012.3342       2.7689281
       6013.3200       2.7048343
       6014.3057       3.0258212
       6015.2914       3.9595673
       6016.2772       3.8514254
       6017.2629       3.4110697
       6018.2486       3.2165888
       6019.2344       2.7244808
       6020.2201       2.5862306
       6021.2058       2.4223089
       6022.1916       2.4340651
       6023.1773       2.4504205
       6024.1630       2.3204650
       6025.1488       2.1796369
       6026.1345       2.4062613
       6027.1202       2.7459200
       6028.1060       2.6248056
       6029.0917       2.5826187
       6030.0775       2.3046689
       6031.0632       2.5508809
       6032.0489       2.5536506
       6033.0347       2.6000931
       6034.0204       2.6973057
       6035.0061       2.5659065
       6035.9919       2.5129912
       6036.9776       2.5580879
       6037.9633       2.3646999
       6038.9491       2.6879933
       6039.9348       2.7413206
       6040.9205       2.8895957
       6041.9063       2.6564009
       6042.8920       2.6623350
       6043.8777       2.7010690
       6044.8635       2.7414251
       6045.8492       2.7969219
       6046.8349       2.7210223
       6047.8207       2.7015186
       6048.8064       2.6662904
       6049.7921       2.5627429
       6050.7779       2.6909990
       6051.7636       2.5749142
       6052.7494       2.4167938
       6053.7351       2.6139138
       6054.7208       2.6467222
       6055.7066       2.3450325
       6056.6923       2.5876576
       6057.6780       2.4057322
       6058.6638       2.6498009
       6059.6495       2.7457670
       6060.6352       2.8146883
       6061.6210       2.7113697
       6062.6067       2.6834664
       6063.5924       2.5729643
       6064.5782       2.4726259
       6065.5639       2.5384316
       6066.5496       2.6964980
       6067.5354       2.6003419
       6068.5211       2.7816655
       6069.5068       2.6156423
       6070.4926       2.5935949
       6071.4783       2.6355235
       6072.4640       2.6848791
       6073.4498       2.6854093
       6074.4355       2.5673974
       6075.4213       2.4384798
       6076.4070       2.6027470
       6077.3927       2.4524609
       6078.3785       2.5521092
       6079.3642       2.8168765
       6080.3499       2.5633484
       6081.3357       2.5659451
       6082.3214       2.6942570
       6083.3071       2.7405936
       6084.2929       2.6640299
       6085.2786       2.4366348
       6086.2643       2.7497379
       6087.2501       2.7170021
       6088.2358       2.6502715
       6089.2215       2.7172970
       6090.2073       2.7558917
       6091.1930       2.6112292
       6092.1787       2.4278582
       6093.1645       2.4861084
       6094.1502       2.8063739
       6095.1359       2.5461885
       6096.1217       2.5327441
       6097.1074       2.7881359
       6098.0932       2.8793379
       6099.0789       2.7872741
       6100.0646       2.6601634
       6101.0504       2.6154937
       6102.0361       2.6096707
       6103.0218       2.7171270
       6104.0076       2.7786104
       6104.9933       2.6634926
       6105.9790       2.8467137
       6106.9648       2.8218388
       6107.9505       2.6471463
       6108.9362       2.6685932
       6109.9220       2.6877736
       6110.9077       2.7208612
       6111.8934       2.5496740
       6112.8792       2.5493583
       6113.8649       2.5520285
       6114.8506       2.5052582
       6115.8364       2.7048100
       6116.8221       2.6953013
       6117.8078       2.8359791
       6118.7936       2.5976678
       6119.7793       2.4321831
       6120.7651       2.4729212
       6121.7508       2.6557337
       6122.7365       2.8020818
       6123.7223       2.4402664
       6124.7080       2.3764081
       6125.6937       2.3594575
       6126.6795       2.6477204
       6127.6652       2.6167549
       6128.6509       2.3660989
       6129.6367       2.2628161
       6130.6224       2.1356851
       6131.6081       2.5171479
       6132.5939       2.5813917
       6133.5796       2.5579139
       6134.5653       2.4816158
       6135.5511       2.4483490
       6136.5368       2.6008800
       6137.5225       2.5713058
       6138.5083       2.6369281
       6139.4940       2.6681449
       6140.4797       2.4524556
       6141.4655       2.5293217
       6142.4512       2.5576334
       6143.4370       2.7506217
       6144.4227       2.6034962
       6145.4084       2.6726152
       6146.3942       2.5826566
       6147.3799       2.6862963
       6148.3656       2.3468876
       6149.3514       2.4885200
       6150.3371       2.5956912
       6151.3228       2.4830116
       6152.3086       2.5881886
       6153.2943       2.5809200
       6154.2800       2.6378261
       6155.2658       2.5995918
       6156.2515       2.5568248
       6157.2372       2.5836528
       6158.2230       2.5695261
       6159.2087       2.6474036
       6160.1944       2.7053669
       6161.1802       2.6696038
       6162.1659       2.7469438
       6163.1516       2.6880551
       6164.1374       2.6557127
       6165.1231       2.3331242
       6166.1088       2.5445063
       6167.0946       2.3403766
       6168.0803       2.3204209
       6169.0661       2.6059105
       6170.0518       2.6123659
       6171.0375       2.5335540
       6172.0233       2.5123334
       6173.0090       2.5497010
       6173.9947       2.4814909
       6174.9805       2.5294759
       6175.9662       2.6512039
       6176.9519       2.6622712
       6177.9377       2.6063044
       6178.9234       2.9585123
       6179.9091       2.7559685
       6180.8949       2.8197613
       6181.8806       2.6573063
       6182.8663       2.7759989
       6183.8521       2.6353022
       6184.8378       2.5876156
       6185.8235       2.5755833
       6186.8093       2.6890492
       6187.7950       2.9185876
       6188.7807       2.8828295
       6189.7665       2.5980547
       6190.7522       2.6471837
       6191.7380       2.7883582
       6192.7237       2.6771629
       6193.7094       2.6072775
       6194.6952       2.4351796
       6195.6809       2.6599626
       6196.6666       2.6988210
       6197.6524       2.7438827
       6198.6381       2.7989546
       6199.6238       2.7110729
       6200.6096       2.6180887
       6201.5953       2.5697304
       6202.5810       2.6599185
       6203.5668       2.4806702
       6204.5525       2.8337516
       6205.5382       3.1386629
       6206.5240       2.8864916
       6207.5097       2.7073780
       6208.4954       2.8476008
       6209.4812       2.6726308
       6210.4669       2.4883872
       6211.4526       2.5384583
       6212.4384       2.7646934
       6213.4241       2.5180725
       6214.4099       2.5958733
       6215.3956       2.4951896
       6216.3813       2.6117759
       6217.3671       3.0485343
       6218.3528       3.8927194
       6219.3385       3.8392835
       6220.3243       3.6187847
       6221.3100       3.1761694
       6222.2957       2.5281651
       6223.2815       1.7401429
       6224.2672       1.5376821
       6225.2529       1.3450903
       6226.2387       1.1130958
       6227.2244       1.2050702
       6228.2101      0.93693272
       6229.1959      0.86371452
       6230.1816             NaN
       6231.1673             NaN
       6232.1531             NaN
       6233.1388             NaN
       6234.1245             NaN
       6235.1103             NaN
       6236.0960             NaN
       6237.0818             NaN
       6238.0675             NaN
       6239.0532             NaN
       6240.0390             NaN
       6241.0247             NaN
       6242.0104             NaN
       6242.9962             NaN
       6243.9819             NaN
       6244.9676             NaN
       6245.9534             NaN
       6246.9391             NaN
       6247.9248             NaN
       6248.9106             NaN
       6249.8963             NaN
       6250.8820             NaN
       6251.8678             NaN
       6252.8535             NaN
       6253.8392             NaN
       6254.8250             NaN
       6255.8107             NaN
       6256.7964             NaN
       6257.7822             NaN
       6258.7679             NaN
       6259.7537             NaN
       6260.7394             NaN
       6261.7251             NaN
       6262.7109             NaN
       6263.6966             NaN
       6264.6823             NaN
       6265.6681             NaN
       6266.6538             NaN
       6267.6395             NaN
       6268.6253             NaN
       6269.6110             NaN
       6270.5967             NaN
       6271.5825             NaN
       6272.5682             NaN
       6273.5539             NaN
       6274.5397             NaN
       6275.5254             NaN
       6276.5111             NaN
       6277.4969             NaN
       6278.4826             NaN
       6279.4683             NaN
       6280.4541             NaN
       6281.4398             NaN
       6282.4256             NaN
       6283.4113             NaN
       6284.3970             NaN
       6285.3828             NaN
       6286.3685             NaN
       6287.3542             NaN
       6288.3400             NaN
       6289.3257             NaN
       6290.3114             NaN
       6291.2972             NaN
       6292.2829             NaN
       6293.2686             NaN
       6294.2544             NaN
       6295.2401             NaN
       6296.2258             NaN
       6297.2116             NaN
       6298.1973             NaN
       6299.1830             NaN
       6300.1688             NaN
       6301.1545             NaN
       6302.1402             NaN
       6303.1260             NaN
       6304.1117             NaN
       6305.0974             NaN
       6306.0832             NaN
       6307.0689             NaN
       6308.0547             NaN
       6309.0404             NaN
       6310.0261             NaN
       6311.0119             NaN
       6311.9976             NaN
       6312.9833             NaN
       6313.9691             NaN
       6314.9548             NaN
       6315.9405             NaN
       6316.9263       2.9821849
       6317.9120       2.9789288
       6318.8977       2.2746129
       6319.8835       2.3083138
       6320.8692       2.4767526
       6321.8549       2.6426225
       6322.8407       2.6731676
       6323.8264       2.1839167
       6324.8121       2.3863146
       6325.7979       2.7635836
       6326.7836       2.2598242
       6327.7693       2.3645934
       6328.7551       2.3359035
       6329.7408       2.0284781
       6330.7266       2.2412029
       6331.7123       2.3931193
       6332.6980       2.4043034
       6333.6838       2.7728603
       6334.6695       2.9274219
       6335.6552       2.8428041
       6336.6410       3.6568441
       6337.6267       4.5900233
       6338.6124       4.7516685
       6339.5982       3.6424410
       6340.5839       3.0592974
       6341.5696       2.9617245
       6342.5554       2.5611854
       6343.5411       2.2432549
       6344.5268       2.2879781
       6345.5126       2.0671784
       6346.4983       2.0462293
       6347.4840       1.9322664
       6348.4698       1.4508599
       6349.4555       1.1147626
       6350.4412      0.58702594
       6351.4270      0.77887513
       6352.4127       1.8093225
       6353.3985       2.2681735
       6354.3842       2.2310160
       6355.3699       2.2838658
       6356.3557       2.4772578
       6357.3414       2.5397976
       6358.3271       2.6043177
       6359.3129       2.4303594
       6360.2986       2.5745879
       6361.2843       2.6120245
       6362.2701       2.5731763
       6363.2558       2.5665438
       6364.2415       2.4693439
       6365.2273       2.4350997
       6366.2130       2.5508553
       6367.1987       2.4240375
       6368.1845       2.1257906
       6369.1702       2.4169022
       6370.1559       2.2613120
       6371.1417       2.2679052
       6372.1274       2.3701348
       6373.1131       1.8907083
       6374.0989       2.1238070
       6375.0846       2.4719337
       6376.0704       2.2721858
       6377.0561       2.2273536
       6378.0418       2.4480307
       6379.0276       2.5101975
       6380.0133       2.5920992
       6380.9990       2.6514022
       6381.9848       2.3464629
       6382.9705       2.1396132
       6383.9562       1.8895450
       6384.9420       1.7040152
       6385.9277       2.2514221
       6386.9134       2.3015563
       6387.8992       2.3032422
       6388.8849       2.1302676
       6389.8706       2.3875227
       6390.8564       2.4824639
       6391.8421       2.6280269
       6392.8278       2.7130895
       6393.8136       2.5964881
       6394.7993       2.4984069
       6395.7850       2.5323234
       6396.7708       2.8306290
       6397.7565       2.7810545
       6398.7423       3.0562101
       6399.7280       2.8794301
       6400.7137       2.6757360
       6401.6995       2.8926281
       6402.6852       2.7931730
       6403.6709       2.7831954
       6404.6567       2.5001751
       6405.6424       2.7645749
       6406.6281       2.7846436
       6407.6139       2.9627527
       6408.5996       3.0488766
       6409.5853       3.3461499
       6410.5711       3.1374522
       6411.5568       2.8163426
       6412.5425       3.0827439
       6413.5283       2.9154264
       6414.5140       2.7862151
       6415.4997       2.5784585
       6416.4855       2.6778205
       6417.4712       2.5126774
       6418.4569       2.6390552
       6419.4427       2.7041409
       6420.4284       2.8463526
       6421.4142       2.9938103
       6422.3999       2.6345798
       6423.3856       2.4318211
       6424.3714       2.7028215
       6425.3571       2.5658778
       6426.3428       2.3031117
       6427.3286       2.3564398
       6428.3143       2.3309599
       6429.3000       2.7617906
       6430.2858       3.7467898
       6431.2715       4.5636545
       6432.2572       4.4103772
       6433.2430       4.2649028
       6434.2287       3.8578900
       6435.2144       4.0026724
       6436.2002       3.4740554
       6437.1859       2.8567617
       6438.1716       3.4850622
       6439.1574       3.4068301
       6440.1431       2.9921381
       6441.1288       2.7693560
       6442.1146       2.7938272
       6443.1003       2.7554783
       6444.0860       2.7252611
       6445.0718       2.9000217
       6446.0575       3.2162912
       6447.0433       3.3184665
       6448.0290       3.3443304
       6449.0147       2.9523026
       6450.0005       2.9481131
       6450.9862       3.0841514
       6451.9719       3.3001249
       6452.9577       3.1426601
       6453.9434       2.8385123
       6454.9291       2.3275686
       6455.9149       2.4589292
       6456.9006       2.5943912
       6457.8863       2.6393439
       6458.8721       2.5705392
       6459.8578       2.6792821
       6460.8435       2.8078034
       6461.8293       2.8359348
       6462.8150       3.3531735
       6463.8007       3.7894190
       6464.7865       3.7951981
       6465.7722       4.1562177
       6466.7579       3.2368494
       6467.7437       2.5923618
       6468.7294       2.8154021
       6469.7152       2.8235068
       6470.7009       2.6723245
       6471.6866       2.3440117
       6472.6724       2.5176985
       6473.6581       2.6566825
       6474.6438       2.7907601
       6475.6296       2.6880223
       6476.6153       2.4188590
       6477.6010       2.4895758
       6478.5868       2.6251121
       6479.5725       2.5930708
       6480.5582       2.4236488
       6481.5440       1.4212965
       6482.5297       2.0891466
       6483.5154       2.2866951
       6484.5012       2.1633022
       6485.4869       1.5369011
       6486.4726       1.7964886
       6487.4584       1.3417495
       6488.4441       2.1993616
       6489.4298       2.4630825
       6490.4156       2.3471060
       6491.4013       2.3939455
       6492.3871       2.3583375
       6493.3728       1.9157882
       6494.3585       2.2179070
       6495.3443       2.5404827
       6496.3300       2.4054704
       6497.3157       2.8944207
       6498.3015       2.6892646
       6499.2872       2.7732117
       6500.2729       2.5500125
       6501.2587       2.9736595
       6502.2444       2.9396180
       6503.2301       2.8136268
       6504.2159       2.7051728
       6505.2016       2.5590384
       6506.1873       2.4465904
       6507.1731       2.4260779
       6508.1588       2.3128386
       6509.1445       2.3738332
       6510.1303       2.6346749
       6511.1160       2.8503715
       6512.1017       2.1658559
       6513.0875       2.1959100
       6514.0732       2.4169868
       6515.0590       2.0865702
       6516.0447       2.2855916
       6517.0304       2.4227090
       6518.0162       2.4325941
       6519.0019       2.4075085
       6519.9876       2.5951055
       6520.9734       2.6511893
       6521.9591       2.5152592
       6522.9448       2.9351401
       6523.9306       2.6229264
       6524.9163       2.3866322
       6525.9020       2.6525483
       6526.8878       2.6459535
       6527.8735       3.0147687
       6528.8592       2.2552696
       6529.8450       2.3369860
       6530.8307       2.6995912
       6531.8164       2.8168774
       6532.8022       2.7462621
       6533.7879       2.5983479
       6534.7736       2.5966482
       6535.7594       2.5027901
       6536.7451       2.6823220
       6537.7309       3.0348624
       6538.7166       2.8970180
       6539.7023       3.1951679
       6540.6881       3.4238791
       6541.6738       3.4229334
       6542.6595       3.4639026
       6543.6453       3.3464716
       6544.6310       3.3075922
       6545.6167       2.9217509
       6546.6025       2.7970658
       6547.5882       2.6620011
       6548.5739       2.8885474
       6549.5597       2.9956046
       6550.5454       3.5536871
       6551.5311       3.6450005
       6552.5169       3.8051860
       6553.5026       6.0418955
       6554.4883       9.2571480
       6555.4741       12.961421
       6556.4598       16.077055
       6557.4455       17.772189
       6558.4313       17.529105
       6559.4170       15.195580
       6560.4028       11.078418
       6561.3885       6.9773158
       6562.3742       4.2824422
       6563.3600       3.1094367
       6564.3457       2.5906062
       6565.3314       2.5044844
       6566.3172       2.6153513
       6567.3029       2.4047500
       6568.2886       2.3991553
       6569.2744       2.7263393
       6570.2601       2.5172922
       6571.2458       2.3610209
       6572.2316       1.9987597
       6573.2173       2.3652547
       6574.2030       3.2604438
       6575.1888       3.6855785
       6576.1745       4.5952242
       6577.1602       5.1375324
       6578.1460       5.5482440
       6579.1317       5.8164902
       6580.1174       5.1338773
       6581.1032       4.0278132
       6582.0889       3.6054616
       6583.0747       3.0844179
       6584.0604       2.6152794
       6585.0461       2.5510328
       6586.0319       2.4368286
       6587.0176       2.6352393
       6588.0033       2.6421303
       6588.9891       2.5070895
       6589.9748       2.7367774
       6590.9605       2.5703160
       6591.9463       2.4849884
       6592.9320       2.6422311
       6593.9177       2.6640594
       6594.9035       2.8253699
       6595.8892       2.6345444
       6596.8749       2.4601576
       6597.8607       2.5137530
       6598.8464       2.7192308
       6599.8321       2.7509340
       6600.8179       2.5136856
       6601.8036       2.5635843
       6602.7893       2.7001310
       6603.7751       2.2611149
       6604.7608       2.5288036
       6605.7465       2.6640801
       6606.7323       2.4437672
       6607.7180       2.4602884
       6608.7038       2.7006385
       6609.6895       2.7146925
       6610.6752       2.7118620
       6611.6610       2.5680834
       6612.6467       2.4909205
       6613.6324       2.6329833
       6614.6182       2.4340450
       6615.6039       2.6499835
       6616.5896       2.5705613
       6617.5754       2.6614824
       6618.5611       2.6490786
       6619.5468       2.6155115
       6620.5326       2.7292393
       6621.5183       2.7369495
       6622.5040       2.5758291
       6623.4898       2.5896407
       6624.4755       2.5793776
       6625.4612       2.6061157
       6626.4470       2.7161169
       6627.4327       2.6332282
       6628.4184       2.5367217
       6629.4042       2.5059971
       6630.3899       2.2225409
       6631.3757       2.4703901
       6632.3614       2.5007879
       6633.3471       2.4388679
       6634.3329       2.3684315
       6635.3186       2.4305766
       6636.3043       2.5768130
       6637.2901       2.4339732
       6638.2758       2.5762263
       6639.2615       2.4621240
       6640.2473       2.4199225
       6641.2330       2.2870866
       6642.2187       2.4366378
       6643.2045       2.4542626
       6644.1902       2.5350548
       6645.1759       2.5090399
       6646.1617       2.5641634
       6647.1474       2.6570774
       6648.1331       2.5663430
       6649.1189       2.5548619
       6650.1046       2.6414644
       6651.0903       2.7773951
       6652.0761       2.5675959
       6653.0618       2.4157238
       6654.0476       2.4237014
       6655.0333       2.5214611
       6656.0190       2.6737091
       6657.0048       2.6088429
       6657.9905       2.4868718
       6658.9762       2.6249383
       6659.9620       2.5276046
       6660.9477       2.6531086
       6661.9334       2.4290231
       6662.9192       2.4876973
       6663.9049       2.4449499
       6664.8906       2.3486646
       6665.8764       2.2337224
       6666.8621       2.4857776
       6667.8478       2.5609915
       6668.8336       2.7106544
       6669.8193       2.5930678
       6670.8050       2.5138243
       6671.7908       2.5375522
       6672.7765       2.5256568
       6673.7622       2.8111525
       6674.7480       2.6597110
       6675.7337       2.3865693
       6676.7195       2.6030587
       6677.7052       2.5442505
       6678.6909       2.4897786
       6679.6767       2.5598985
       6680.6624       2.5596699
       6681.6481       2.4415197
       6682.6339       2.5282101
       6683.6196       2.4809664
       6684.6053       2.5101391
       6685.5911       2.6613708
       6686.5768       2.6345185
       6687.5625       2.4120300
       6688.5483       2.4790753
       6689.5340       2.4711060
       6690.5197       2.4039330
       6691.5055       2.4790407
       6692.4912       2.3771366
       6693.4769       2.4259503
       6694.4627       2.5637144
       6695.4484       2.4851794
       6696.4341       2.4758305
       6697.4199       2.4314098
       6698.4056       2.3922755
       6699.3914       2.3422106
       6700.3771       2.4341513
       6701.3628       2.3893419
       6702.3486       2.3699164
       6703.3343       2.1953478
       6704.3200       2.2458076
       6705.3058       2.4874814
       6706.2915       2.8736314
       6707.2772       3.1817425
       6708.2630       4.0648364
       6709.2487       5.0689895
       6710.2344       5.4937816
       6711.2202       5.7562403
       6712.2059       5.6091536
       6713.1916       4.8543912
       6714.1774       3.7699858
       6715.1631       3.2464136
       6716.1488       2.8694907
       6717.1346       2.6045900
       6718.1203       2.5060302
       6719.1060       2.5304746
       6720.0918       2.5245734
       6721.0775       2.8838399
       6722.0633       3.4090033
       6723.0490       4.1434886
       6724.0347       4.5584598
       6725.0205       4.7159266
       6726.0062       4.9205828
       6726.9919       4.6858303
       6727.9777       4.1695045
       6728.9634       3.4620096
       6729.9491       2.9310590
       6730.9349       2.5852998
       6731.9206       2.3479001
       6732.9063       2.2545958
       6733.8921       2.3430795
       6734.8778       2.2697943
       6735.8635       2.3540398
       6736.8493       2.5589267
       6737.8350       2.4819760
       6738.8207       2.3764438
       6739.8065       2.4312931
       6740.7922       2.3656214
       6741.7779       2.2726100
       6742.7637       2.3305932
       6743.7494       2.2827994
       6744.7351       2.2802139
       6745.7209       2.5170392
       6746.7066       2.4594048
       6747.6924       2.4677960
       6748.6781       2.5213637
       6749.6638       2.5095411
       6750.6496       2.4764440
       6751.6353       2.6640252
       6752.6210       2.7482290
       6753.6068       2.4921586
       6754.5925       2.4457658
       6755.5782       2.4420511
       6756.5640       2.6380176
       6757.5497       2.6719582
       6758.5354       2.5658749
       6759.5212       2.4268877
       6760.5069       2.4538890
       6761.4926       2.5065284
       6762.4784       2.4548749
       6763.4641       2.6380703
       6764.4498       2.4145878
       6765.4356       2.3612566
       6766.4213       2.4658008
       6767.4070       2.4467062
       6768.3928       2.4518424
       6769.3785       2.2825344
       6770.3643       2.3476369
       6771.3500       2.2821836
       6772.3357       2.4083646
       6773.3215       2.3902087
       6774.3072       2.5146257
       6775.2929       2.4558308
       6776.2787       2.4432598
       6777.2644       2.5858236
       6778.2501       2.3321037
       6779.2359       2.2540932
       6780.2216       2.4510802
       6781.2073       2.4561050
       6782.1931       2.7652133
       6783.1788       2.1398038
       6784.1645       1.8014300
       6785.1503       2.3900835
       6786.1360       2.2999327
       6787.1217       2.0335328
       6788.1075       2.1607391
       6789.0932       2.3230416
       6790.0789       2.4756050
       6791.0647       2.6007680
       6792.0504       2.2654932
       6793.0362       2.3817075
       6794.0219       2.4399195
       6795.0076       2.7002561
       6795.9934       2.6225756
       6796.9791       2.3763308
       6797.9648       2.1305226
       6798.9506       2.5421557
       6799.9363       2.7084715
       6800.9220       2.5715269
       6801.9078       2.7166846
       6802.8935       2.5241475
       6803.8792       2.5752127
       6804.8650       2.8687835
       6805.8507       2.7376929
       6806.8364       2.5425742
       6807.8222       2.6616318
       6808.8079       2.7305875
       6809.7936       2.6068298
       6810.7794       2.4042112
       6811.7651       2.6926882
       6812.7508       2.7674548
       6813.7366       2.6343206
       6814.7223       2.4664766
       6815.7081       2.6142311
       6816.6938       2.4605473
       6817.6795       2.4211632
       6818.6653       2.4867132
       6819.6510       2.6014930
       6820.6367       2.5592603
       6821.6225       2.5965983
       6822.6082       2.6366151
       6823.5939       2.5577219
       6824.5797       2.5837183
       6825.5654       2.4812169
       6826.5511       2.6108949
       6827.5369       2.6197725
       6828.5226       2.6806138
       6829.5083       2.7393294
       6830.4941       2.5689790
       6831.4798       2.3446017
       6832.4655       2.2722289
       6833.4513       1.9653508
       6834.4370       2.0145980
       6835.4227       1.1086843
       6836.4085       1.7754922
       6837.3942       3.1811231
       6838.3800       3.2395918
       6839.3657       2.4996178
       6840.3514       2.0669702
       6841.3372       2.5825389
       6842.3229       2.7837989
       6843.3086       2.9088667
       6844.2944       2.6077031
       6845.2801       2.3229058
       6846.2658       2.5083815
       6847.2516       2.1688075
       6848.2373       2.4020673
       6849.2230       2.4599450
       6850.2088       2.5548793
       6851.1945       2.5601189
       6852.1802       2.3771709
       6853.1660       2.4673967
       6854.1517       2.4661660
       6855.1374       2.6181544
       6856.1232       2.3636848
       6857.1089       2.5559606
       6858.0946       2.5349672
       6859.0804       2.4260623
       6860.0661       2.3646846
       6861.0519       2.4446862
       6862.0376       2.6026589
       6863.0233       2.5001051
       6864.0091       2.5230991
       6864.9948       2.7122771
       6865.9805       2.5155978
       6866.9663       2.4178421
       6867.9520       2.5338765
       6868.9377       2.6083659
       6869.9235       2.2949274
       6870.9092       2.3864953
       6871.8949       2.6617337
       6872.8807       2.7564854
       6873.8664       2.6278986
       6874.8521       2.5163550
       6875.8379       2.4996399
       6876.8236       2.6321819
       6877.8093       2.5227107
       6878.7951       2.2642189
       6879.7808       2.1537049
       6880.7665       2.3524617
       6881.7523       2.7200416
       6882.7380       2.2699010
       6883.7237       2.2790538
       6884.7095       2.4505605
       6885.6952       3.0615029
       6886.6810       2.8824644
       6887.6667       2.6828573
       6888.6524       2.6258694
       6889.6382       2.4946045
       6890.6239       2.4278862
       6891.6096       2.5686674
       6892.5954       2.3850507
       6893.5811       1.7684086
       6894.5668       1.5648412
       6895.5526       2.1709025
       6896.5383       2.3781715
       6897.5240       2.2798771
       6898.5098       2.2202676
       6899.4955       2.6176765
       6900.4812       2.6523350
       6901.4670       2.5663805
       6902.4527       2.3496754
       6903.4384       2.3234398
       6904.4242       2.7012970
       6905.4099       2.0943747
       6906.3956       2.1007829
       6907.3814       2.9803600
       6908.3671       2.9716119
       6909.3529       2.7433145
       6910.3386       2.8108449
       6911.3243       3.2600805
       6912.3101       2.7936361
       6913.2958       2.4058408
       6914.2815       2.5383864
       6915.2673       2.4998136
       6916.2530       2.4571029
       6917.2387       2.5448430
       6918.2245       2.3244412
       6919.2102       2.2549417
       6920.1959       2.3014117
       6921.1817       2.3207322
       6922.1674       2.4483725
       6923.1531       2.6539186
       6924.1389       2.6918841
       6925.1246       2.8319531
       6926.1103       2.8438124
       6927.0961       2.7450167
       6928.0818       2.9174832
       6929.0675       2.8700251
       6930.0533       2.7115346
       6931.0390       2.3058409
       6932.0248       2.2638238
       6933.0105       2.0797243
       6933.9962       1.8707955
       6934.9820       2.3943609
       6935.9677       2.7813057
       6936.9534       2.9677131
       6937.9392       2.5074978
       6938.9249       2.4533342
       6939.9106       2.9680127
       6940.8964       2.7248626
       6941.8821       2.3029215
       6942.8678       2.2429968
       6943.8536       2.2281502
       6944.8393       2.4561982
       6945.8250       2.4761698
       6946.8108       2.5119434
       6947.7965       2.4553896
       6948.7822       2.4296921
       6949.7680       2.7140885
       6950.7537       2.6113383
       6951.7394       2.6048556
       6952.7252       2.5505459
       6953.7109       2.4342914
       6954.6967       2.3753010
       6955.6824       2.4076215
       6956.6681       2.3577266
       6957.6539       2.5427845
       6958.6396       2.3704161
       6959.6253       2.5330682
       6960.6111       2.3960184
       6961.5968       2.6048359
       6962.5825       2.6812641
       6963.5683       2.6038589
       6964.5540       2.6640420
       6965.5397       2.4133121
       6966.5255       2.4479441
       6967.5112       2.1064477
       6968.4969       2.0960875
       6969.4827       2.0561026
       6970.4684       2.2231312
       6971.4541       2.4360674
       6972.4399       2.3716581
       6973.4256       2.3724464
       6974.4113       2.4216719
       6975.3971       2.3363628
       6976.3828       2.2004977
       6977.3686       2.2954842
       6978.3543       2.4968683
       6979.3400       2.5652302
       6980.3258       2.5239301
       6981.3115       2.5610877
       6982.2972       2.5993551
       6983.2830       2.7327584
       6984.2687       2.6537347
       6985.2544       2.5920312
       6986.2402       2.5621562
       6987.2259       2.5379143
       6988.2116       2.5667697
       6989.1974       2.5077701
       6990.1831       2.4551733
       6991.1688       2.4556100
       6992.1546       2.5064108
       6993.1403       2.5839026
       6994.1260       2.6090912
       6995.1118       2.4888904
       6996.0975       2.6019569
       6997.0832       2.5753979
       6998.0690       2.5642625
       6999.0547       2.6552655
       7000.0405       2.4257711
       7001.0262       2.3739842
       7002.0119       2.5490423
       7002.9977       2.7524281
       7003.9834       2.2787175
       7004.9691       2.5104975
       7005.9549       2.6341158
       7006.9406       2.5422152
       7007.9263       2.5759761
       7008.9121       2.7258435
       7009.8978       2.5983579
       7010.8835       2.4094839
       7011.8693       2.3591667
       7012.8550       2.3846658
       7013.8407       2.4244280
       7014.8265       2.3869832
       7015.8122       2.5290001
       7016.7979       2.6121797
       7017.7837       2.5295658
       7018.7694       2.4367300
       7019.7551       2.5391038
       7020.7409       2.5266954
       7021.7266       2.4171977
       7022.7124       2.6261997
       7023.6981       2.6442850
       7024.6838       2.4840857
       7025.6696       2.5882441
       7026.6553       2.4496217
       7027.6410       2.5259747
       7028.6268       2.4387080
       7029.6125       2.4296426
       7030.5982       2.4807131
       7031.5840       2.5961180
       7032.5697       2.6102768
       7033.5554       2.4738164
       7034.5412       2.3420066
       7035.5269       2.4144345
       7036.5126       2.4947450
       7037.4984       2.4178378
       7038.4841       2.4613268
       7039.4698       2.4600965
       7040.4556       2.4115095
       7041.4413       2.4901695
       7042.4270       2.5042512
       7043.4128       2.5182616
       7044.3985       2.5333315
       7045.3842       2.5919554
       7046.3700       2.3484062
       7047.3557       2.4232595
       7048.3415       2.5307435
       7049.3272       2.4832844
       7050.3129       2.3960840
       7051.2987       2.4090031
       7052.2844       2.3927863
       7053.2701       2.3695408
       7054.2559       2.2650508
       7055.2416       2.5493827
       7056.2273       2.5149098
       7057.2131       2.4999078
       7058.1988       2.4128919
       7059.1845       2.4234184
       7060.1703       2.5493284
       7061.1560       2.3468209
       7062.1417       2.5466830
       7063.1275       2.6824412
       7064.1132       2.2421547
       7065.0989       2.1016820
       7066.0847       2.5431973
       7067.0704       2.5111640
       7068.0561       2.2236777
       7069.0419       2.5987974
       7070.0276       2.7867844
       7071.0134       2.7455244
       7071.9991       2.5002596
       7072.9848       2.4590185
       7073.9706       2.4240139
       7074.9563       2.3863638
       7075.9420       2.5345168
       7076.9278       2.9724985
       7077.9135       2.6600719
       7078.8992       2.5165180
       7079.8850       2.6014973
       7080.8707       2.4720150
       7081.8564       2.6437545
       7082.8422       2.2867058
       7083.8279       2.3023862
       7084.8136       2.5391304
       7085.7994       2.4581150
       7086.7851       2.5903869
       7087.7708       2.8707413
       7088.7566       2.4351621
       7089.7423       2.7051339
       7090.7280       2.8450584
       7091.7138       2.6066811
       7092.6995       2.4701826
       7093.6853       2.0832565
       7094.6710       2.1960902
       7095.6567       2.9328720
       7096.6425       2.6456167
       7097.6282       2.4132756
       7098.6139       2.5090563
       7099.5997       2.4762699
       7100.5854       2.3222033
       7101.5711       2.2551109
       7102.5569       2.1447084
       7103.5426       2.3046942
       7104.5283       2.5711951
       7105.5141       2.6627795
       7106.4998       2.4900688
       7107.4855       2.4995374
       7108.4713       2.5479906
       7109.4570       2.5212511
       7110.4427       2.2464944
       7111.4285       2.2828793
       7112.4142       2.3932837
       7113.3999       2.4021688
       7114.3857       2.2191055
       7115.3714       2.4346628
       7116.3572       2.4960262
       7117.3429       2.4921689
       7118.3286       2.4909471
       7119.3144       2.3017486
       7120.3001       2.3631225
       7121.2858       2.5080696
       7122.2716       2.5289770
       7123.2573       2.5034959
       7124.2430       2.4347947
       7125.2288       2.4468727
       7126.2145       2.4713044
       7127.2002       2.5557382
       7128.1860       2.5431341
       7129.1717       2.6610728
       7130.1574       2.6935762
       7131.1432       2.7972505
       7132.1289       2.6904207
       7133.1146       2.6372088
       7134.1004       2.6131397
       7135.0861       2.2920048
       7136.0718       2.3983990
       7137.0576       2.6758636
       7138.0433       3.3332528
       7139.0291       4.3710266
       7140.0148       4.2840669
       7141.0005       3.1000428
       7141.9863       2.6418191
       7142.9720       2.5913905
       7143.9577       2.4379690
       7144.9435       2.5540342
       7145.9292       2.4401352
       7146.9149       2.4620292
       7147.9007       2.4762082
       7148.8864       2.6413164
       7149.8721       2.5860044
       7150.8579       2.5115566
       7151.8436       2.4747247
       7152.8293       2.4104376
       7153.8151       2.4535910
       7154.8008       2.3726389
       7155.7865       2.2157712
       7156.7723       2.3616292
       7157.7580       2.5464449
       7158.7437       2.3694588
       7159.7295       2.2704372
       7160.7152       2.2536704
       7161.7010       2.2950307
       7162.6867       2.2739850
       7163.6724       2.2062953
       7164.6582       2.3345929
       7165.6439       2.5878967
       7166.6296       2.5166390
       7167.6154       2.4037074
       7168.6011       2.4812611
       7169.5868       2.4666415
       7170.5726       2.4877965
       7171.5583       2.6662684
       7172.5440       2.5714241
       7173.5298       2.4648082
       7174.5155       2.2456383
       7175.5012       2.4181108
       7176.4870       2.0401258
       7177.4727       1.6202571
       7178.4584       2.2761917
       7179.4442       2.4939251
       7180.4299       2.9021730
       7181.4156       1.9386863
       7182.4014       1.3124579
       7183.3871       2.3916576
       7184.3728       2.8725055
       7185.3586       2.3310868
       7186.3443       2.0789236
       7187.3301       2.2092342
       7188.3158       2.5967951
       7189.3015       2.3224571
       7190.2873       2.4203065
       7191.2730       2.4957736
       7192.2587       2.7981416
       7193.2445       2.5379005
       7194.2302       2.9487645
       7195.2159       2.9252132
       7196.2017       2.6144052
       7197.1874       3.0728970
       7198.1731       2.5775794
       7199.1589       2.4029047
       7200.1446       2.3501501
       7201.1303       2.1343573
       7202.1161       2.2010546
       7203.1018       2.1944932
       7204.0875       2.1493180
       7205.0733       2.0788314
       7206.0590       2.3733285
       7207.0447       2.6305568
       7208.0305       2.5716046
       7209.0162       2.3951220
       7210.0020       2.4375815
       7210.9877       2.3879024
       7211.9734       2.4400200
       7212.9592       2.4868118
       7213.9449       2.3699308
       7214.9306       2.4074913
       7215.9164       2.6001813
       7216.9021       2.5458263
       7217.8878       2.4098040
       7218.8736       2.5327060
       7219.8593       2.5954643
       7220.8450       2.5324189
       7221.8308       2.6864564
       7222.8165       2.6065937
       7223.8022       2.4779346
       7224.7880       2.4392625
       7225.7737       2.5049694
       7226.7594       2.6355007
       7227.7452       2.5263197
       7228.7309       2.5303840
       7229.7166       2.5769813
       7230.7024       1.5848041
       7231.6881       1.8612386
       7232.6739       2.5273085
       7233.6596       3.0983294
       7234.6453       3.5290792
       7235.6311       2.5237791
       7236.6168       3.2314006
       7237.6025       3.0747880
       7238.5883       2.1096022
       7239.5740       2.4243141
       7240.5597       2.5429021
       7241.5455       2.3612621
       7242.5312       2.3490221
       7243.5169       2.6789869
       7244.5027       3.1704665
       7245.4884       2.8558285
       7246.4741       2.5365016
       7247.4599       2.5164907
       7248.4456       2.5430726
       7249.4313       2.3308869
       7250.4171       2.4026936
       7251.4028       2.2976714
       7252.3885       2.5083622
       7253.3743       2.5152061
       7254.3600       2.3429316
       7255.3458       2.5950276
       7256.3315       2.6077074
       7257.3172       2.4985260
       7258.3030       2.4398817
       7259.2887       2.7306918
       7260.2744       2.7040882
       7261.2602       2.6221196
       7262.2459       2.4360283
       7263.2316       2.3881629
       7264.2174       2.3770793
       7265.2031       2.4260928
       7266.1888       2.5850654
       7267.1746       2.6733889
       7268.1603       2.6154242
       7269.1460       2.3807275
       7270.1318       2.7970626
       7271.1175       2.6703252
       7272.1032       2.4013300
       7273.0890       2.3926396
       7274.0747       2.2864510
       7275.0604       2.3517246
       7276.0462       2.5005295
       7277.0319       2.1869923
       7278.0177       2.4229281
       7279.0034       1.7765434
       7279.9891       2.7738858
       7280.9749       3.1828230
       7281.9606       2.8131463
       7282.9463       2.8775237
       7283.9321       1.7790080
       7284.9178       2.8333905
       7285.9035       2.7042530
       7286.8893       2.3886615
       7287.8750       2.4609454
       7288.8607       2.5054165
       7289.8465       2.7176396
       7290.8322       2.5435338
       7291.8179       2.6355600
       7292.8037       2.5586506
       7293.7894       1.9864508
       7294.7751       2.1085396
       7295.7609       2.8232355
       7296.7466       3.0906104
       7297.7323       2.7093228
       7298.7181       2.8801139
       7299.7038       2.9458758
       7300.6896       2.6070735
       7301.6753       2.7117967
       7302.6610       2.7881338
       7303.6468       2.6843502
       7304.6325       2.3919955
       7305.6182       2.4815658
       7306.6040       1.7320357
       7307.5897       2.2434886
       7308.5754       2.1046513
       7309.5612       2.6464503
       7310.5469       2.6824569
       7311.5326       2.5926769
       7312.5184       3.7452298
       7313.5041       3.3975459
       7314.4898       2.8180929
       7315.4756       2.7295136
       7316.4613       2.6464561
       7317.4470       2.3961903
       7318.4328       2.6173926
       7319.4185       2.6975265
       7320.4042       2.6532872
       7321.3900       2.6019474
       7322.3757       2.4760075
       7323.3614       2.5855513
       7324.3472       2.7111709
       7325.3329       2.9106741
       7326.3187       2.2301692
       7327.3044       2.2877860
       7328.2901       2.2448491
       7329.2759       2.4804110
       7330.2616       2.7573681
       7331.2473       2.3608925
       7332.2331       2.7952498
       7333.2188       2.7691560
       7334.2045       2.5010021
       7335.1903       2.5497705
       7336.1760       2.3721999
       7337.1617       2.7543831
       7338.1475       1.7106445
       7339.1332       1.9762224
       7340.1189       2.6386612
       7341.1047       2.9430245
       7342.0904       3.2484061
       7343.0761       2.3005635
       7344.0619       3.4123595
       7345.0476       3.1148487
       7346.0333       2.5514432
       7347.0191       2.6170722
       7348.0048       2.5933867
       7348.9906       2.4487623
       7349.9763       2.4788361
       7350.9620       2.5685065
       7351.9478       2.4408757
       7352.9335       2.4878589
       7353.9192       2.4961614
       7354.9050       2.4926780
       7355.8907       2.3874802
       7356.8764       2.5704058
       7357.8622       2.5420932
       7358.8479       2.2586753
       7359.8336       2.2819344
       7360.8194       2.5512047
       7361.8051       2.4587430
       7362.7908       2.3081086
       7363.7766       2.4088207
       7364.7623       2.2243340
       7365.7480       2.1496260
       7366.7338       2.1412534
       7367.7195       2.4720738
       7368.7052       2.6136204
       7369.6910       2.7449184
       7370.6767       2.4996543
       7371.6625       2.4701145
       7372.6482       3.0424734
       7373.6339       2.4623966
       7374.6197       1.5695659
       7375.6054       1.3438569
       7376.5911       2.3820604
       7377.5769       1.8241591
       7378.5626       2.4687539
       7379.5483       2.9253508
       7380.5341       2.8354295
       7381.5198       2.4705943
       7382.5055       2.4941693
       7383.4913       2.3800549
       7384.4770       2.4021232
       7385.4627       2.6670590
       7386.4485       2.5771999
       7387.4342       2.4823299
       7388.4199       2.5445968
       7389.4057       2.5033401
       7390.3914       2.5566938
       7391.3771       2.5962493
       7392.3629       2.4660649
       7393.3486       2.3591707
       7394.3344       2.4181652
       7395.3201       2.3398957
       7396.3058       2.4628394
       7397.2916       2.5253929
       7398.2773       2.6067623
       7399.2630       2.6087843
       7400.2488       2.6311356
       7401.2345       2.6592474
       7402.2202       2.7663706
       7403.2060       2.7623785
       7404.1917       2.2204434
       7405.1774       2.3019538
       7406.1632       2.6692616
       7407.1489       2.6948943
       7408.1346       2.3617604
       7409.1204       2.3665141
       7410.1061       2.7647299
       7411.0918       2.5601576
       7412.0776       2.6743580
       7413.0633       2.5272089
       7414.0490       2.0187394
       7415.0348       2.9822121
       7416.0205       3.2525461
       7417.0063       2.7904334
       7417.9920       2.5102309
       7418.9777       2.5359298
       7419.9635       2.8469825
       7420.9492       2.7255093
       7421.9349       2.5054247
       7422.9207       2.5834641
       7423.9064       2.6951739
       7424.8921       2.7338370
       7425.8779       2.5572047
       7426.8636       2.6809505
       7427.8493       2.6137100
       7428.8351       2.4678603
       7429.8208       2.5052322
       7430.8065       2.6138654
       7431.7923       2.5379352
       7432.7780       2.5602305
       7433.7637       2.5710045
       7434.7495       2.5170771
       7435.7352       2.4181390
       7436.7209       2.5814375
       7437.7067       2.5830827
       7438.6924       2.5331548
       7439.6782       2.5977290
       7440.6639       2.4262623
       7441.6496       2.4458844
       7442.6354       2.4925060
       7443.6211       2.5234268
       7444.6068       2.6124380
       7445.5926       2.4666452
       7446.5783       2.5080700
       7447.5640       2.7822443
       7448.5498       2.6033808
       7449.5355       2.4635405
       7450.5212       2.4916161
       7451.5070       2.5767122
       7452.4927       2.6959330
       7453.4784       2.7376580
       7454.4642       2.7487891
       7455.4499       2.5672707
       7456.4356       2.3656889
       7457.4214       2.2537050
       7458.4071       2.5318171
       7459.3928       2.1808687
       7460.3786       2.3563775
       7461.3643       2.5297412
       7462.3501       2.6743188
       7463.3358       2.6466618
       7464.3215       2.4843383
       7465.3073       2.5262028
       7466.2930       2.5842341
       7467.2787       2.8307356
       7468.2645       2.7094871
       7469.2502       2.6225111
       7470.2359       2.5559901
       7471.2217       2.6194789
       7472.2074       2.7962315
       7473.1931       2.8970843
       7474.1789       2.7918966
       7475.1646       2.7848797
       7476.1503       2.8571849
       7477.1361       2.7706592
       7478.1218       2.7238052
       7479.1075       2.7764140
       7480.0933       2.6923747
       7481.0790       2.6351359
       7482.0647       2.4464696
       7483.0505       2.4242609
       7484.0362       2.5387765
       7485.0219       2.5033294
       7486.0077       2.5557784
       7486.9934       2.5396143
       7487.9792       2.4514672
       7488.9649       2.5501269
       7489.9506       2.4989275
       7490.9364       2.4547324
       7491.9221       2.5654838
       7492.9078       2.6208664
       7493.8936       2.7209584
       7494.8793       2.7860626
       7495.8650       2.8319232
       7496.8508       2.8363747
       7497.8365       2.5045294
       7498.8222       2.3301806
       7499.8080       2.4060041
       7500.7937       2.3087706
       7501.7794       2.4067673
       7502.7652       2.3009107
       7503.7509       2.2603241
       7504.7366       2.6454459
       7505.7224       2.6572220
       7506.7081       2.8050789
       7507.6938       3.0891525
       7508.6796       2.8888362
       7509.6653       2.7078265
       7510.6511       2.7157357
       7511.6368       2.7378682
       7512.6225       2.9665442
       7513.6083       2.8455719
       7514.5940       2.5908833
       7515.5797       2.5122664
       7516.5655       2.5954192
       7517.5512       2.5979980
       7518.5369       2.6209681
       7519.5227       2.6566735
       7520.5084       2.5165521
       7521.4941       2.6453377
       7522.4799       2.8429443
       7523.4656       2.8294081
       7524.4513       2.6340598
       7525.4371       2.5691796
       7526.4228       2.6867026
       7527.4085       2.7127407
       7528.3943       2.7623216
       7529.3800       2.9757160
       7530.3657       3.2543924
       7531.3515       3.1793147
       7532.3372       3.0001960
       7533.3230       3.0481744
       7534.3087       3.0255882
       7535.2944       2.6986756
       7536.2802       2.6985534
       7537.2659       2.7446876
       7538.2516       2.7446403
       7539.2374       2.7516234
       7540.2231       2.8059871
       7541.2088       2.8173533
       7542.1946       2.7905337
       7543.1803       2.8271297
       7544.1660       2.9144138
       7545.1518       2.7319724
       7546.1375       2.7265026
       7547.1232       2.8328828
       7548.1090       2.8826436
       7549.0947       2.8716674
       7550.0804       2.6700830
       7551.0662       2.6399745
       7552.0519       2.7680859
       7553.0376       2.6716089
       7554.0234       2.7803401
       7555.0091       2.8634412
       7555.9949       3.0022691
       7556.9806       2.9553368
       7557.9663       3.0185115
       7558.9521       3.2508483
       7559.9378       2.9612934
       7560.9235       3.0012692
       7561.9093       2.9973021
       7562.8950       2.9099734
       7563.8807       2.9788632
       7564.8665       2.8245456
       7565.8522       2.8499093
       7566.8379       2.8264713
       7567.8237       2.7211946
       7568.8094       2.5630571
       7569.7951       2.7743464
       7570.7809       2.9563368
       7571.7666       3.0680726
       7572.7523       2.9647349
       7573.7381       2.8896988
       7574.7238       2.7293941
       7575.7095       2.8624861
       7576.6953       2.6427585
       7577.6810       2.5704621
       7578.6668       2.6824033
       7579.6525       2.7395652
       7580.6382       2.8276784
       7581.6240       2.7369198
       7582.6097       2.7601790
       7583.5954       2.8165368
       7584.5812       2.6651456
       7585.5669       2.7337933
       7586.5526       2.8413393
       7587.5384       2.9676773
       7588.5241       2.9641577
       7589.5098       2.9582877
       7590.4956       2.9240616
       7591.4813       2.8787069
       7592.4670       2.8206229
       7593.4528       2.5941406
       7594.4385       2.6579132
       7595.4242       2.8091854
       7596.4100       2.9435342
       7597.3957       2.9864142
       7598.3814       2.9403279
       7599.3672       2.8068043
       7600.3529       2.8954692
       7601.3387       3.0449671
       7602.3244       2.7735847
       7603.3101       2.7332162
       7604.2959       2.7600455
       7605.2816       2.7686750
       7606.2673       2.8487874
       7607.2531       2.6152608
       7608.2388       2.4440296
       7609.2245       2.5772691
       7610.2103       2.7104249
       7611.1960       2.7388774
       7612.1817       2.8453772
       7613.1675       2.5552021
       7614.1532       2.3910085
       7615.1389       2.5398952
       7616.1247       2.5941601
       7617.1104       2.4798014
       7618.0961       2.5036787
       7619.0819       2.5464224
       7620.0676       2.6170284
       7621.0533       2.8873221
       7622.0391       2.8930309
       7623.0248       3.1077820
       7624.0105       2.8296979
       7624.9963       1.9348760
       7625.9820       1.9085549
       7626.9678       2.0687199
       7627.9535       2.5974499
       7628.9392       3.8162579
       7629.9250       1.5228350
       7630.9107       1.9566526
       7631.8964       3.7465015
       7632.8822       3.0327386
       7633.8679       1.3016540
       7634.8536       1.0746774
       7635.8394       1.8710521
       7636.8251       2.4584690
       7637.8108      0.81576867
       7638.7966      -1.6521496
       7639.7823      0.35524795
       7640.7680       1.4831137
       7641.7538       1.9864796
       7642.7395       1.6369898
       7643.7252      0.78441979
       7644.7110       2.7008972
       7645.6967       2.6195862
       7646.6824       2.3819112
       7647.6682       2.2118955
       7648.6539       2.0472265
       7649.6397       1.8853577
       7650.6254       1.6858096
       7651.6111       2.1209530
       7652.5969       2.0242143
       7653.5826       2.2059767
       7654.5683       1.9655760
       7655.5541       1.8539005
       7656.5398       2.4176238
       7657.5255       1.7263615
       7658.5113       1.7729834
       7659.4970       2.1015783
       7660.4827       2.0580736
       7661.4685       2.0273437
       7662.4542       2.4165089
       7663.4399       2.3827040
       7664.4257       2.0585058
       7665.4114       2.1089338
       7666.3971       1.9613121
       7667.3829       1.8036749
       7668.3686       1.8434037
       7669.3543       2.0705003
       7670.3401       2.2111999
       7671.3258       2.2916723
       7672.3116       2.4662107
       7673.2973       2.5497258
       7674.2830       2.4828928
       7675.2688       2.4882876
       7676.2545       2.5447840
       7677.2402       2.2790609
       7678.2260       1.9942278
       7679.2117       1.8802250
       7680.1974       2.1784319
       7681.1832       1.4311864
       7682.1689     -0.29143574
       7683.1546       2.6038979
       7684.1404       3.1603998
       7685.1261       3.1959808
       7686.1118       1.8960040
       7687.0976       2.1013722
       7688.0833       5.0539311
       7689.0690       2.5583509
       7690.0548       2.1667117
       7691.0405       2.0683091
       7692.0262       2.5865853
       7693.0120       2.5011199
       7693.9977       2.4228853
       7694.9835       2.4471292
       7695.9692       2.3539306
       7696.9549       2.5738875
       7697.9407       2.7017172
       7698.9264       2.7248576
       7699.9121       2.3265882
       7700.8979       1.9727107
       7701.8836       1.7681090
       7702.8693      0.86778691
       7703.8551       1.0214885
       7704.8408       1.8987428
       7705.8265       1.6509508
       7706.8123       1.7605847
       7707.7980       1.9515565
       7708.7837       2.2537731
       7709.7695       3.1855949
       7710.7552       2.7646547
       7711.7409       2.6872002
       7712.7267       2.6898436
       7713.7124       2.7352096
       7714.6981       2.5222723
       7715.6839       2.7285913
       7716.6696       2.3735405
       7717.6554      0.81580788
       7718.6411       2.0553967
       7719.6268       2.2989465
       7720.6126       1.6630474
       7721.5983       1.4734696
       7722.5840     0.086336050
       7723.5698      0.80785889
       7724.5555       1.4481709
       7725.5412       1.3758093
       7726.5270       2.1366478
       7727.5127       2.0879261
       7728.4984       2.1069370
       7729.4842       2.2089243
       7730.4699       2.4410552
       7731.4556       2.6901396
       7732.4414       2.8369939
       7733.4271      0.81052606
       7734.4128      -3.8085188
       7735.3986      -1.5194053
       7736.3843       2.1113884
       7737.3700       3.7892546
       7738.3558       4.0482619
       7739.3415       4.1284570
       7740.3273       5.4605680
       7741.3130       3.0683908
       7742.2987       2.4650939
       7743.2845       2.0637774
       7744.2702       1.9567848
       7745.2559       1.9915613
       7746.2417       2.2930406
       7747.2274       2.1549490
       7748.2131       1.7108300
       7749.1989      0.17500811
       7750.1846      -2.9960868
       7751.1703     -0.96687111
       7752.1561       1.7177824
       7753.1418      0.82095650
       7754.1275       1.3381953
       7755.1133       3.0829711
       7756.0990       3.5098836
       7757.0847       2.7226474
       7758.0705       2.8406737
       7759.0562       3.1154974
       7760.0419       3.0239606
       7761.0277       3.0412840
       7762.0134       3.1100320
       7762.9991       3.8200069
       7763.9849       5.5481684
       7764.9706       2.3379873
       7765.9564       3.5989908
       7766.9421       3.3587296
       7767.9278       2.9143493
       7768.9136       2.1496240
       7769.8993       2.5261695
       7770.8850       3.8613110
       7771.8708       2.8837991
       7772.8565       2.1186946
       7773.8422       2.5438798
       7774.8280       2.6276721
       7775.8137       2.7611668
       7776.7994       2.6663103
       7777.7852       2.4463427
       7778.7709       2.7099950
       7779.7566       2.2772029
       7780.7424       2.0957179
       7781.7281       2.0608837
       7782.7138       2.3337557
       7783.6996       1.9671299
       7784.6853       1.6228973
       7785.6710       1.2124318
       7786.6568       1.0170374
       7787.6425       1.7254107
       7788.6283       2.2334815
       7789.6140       2.2491203
       7790.5997       2.8652004
       7791.5855       2.6376995
       7792.5712       3.7005486
       7793.5569       2.8976674
       7794.5427       2.5059084
       7795.5284       2.4579328
       7796.5141       2.3593157
       7797.4999       2.2094113
       7798.4856       2.6178501
       7799.4713       2.1240875
       7800.4571       1.7755307
       7801.4428       3.8912651
       7802.4285       2.6671697
       7803.4143       3.1869082
       7804.4000       3.0079681
       7805.3857       2.5687198
       7806.3715       3.6140479
       7807.3572       2.2596960
       7808.3429       1.5846383
       7809.3287       1.8364222
       7810.3144       2.1528376
       7811.3002       2.5265157
       7812.2859       2.5860054
       7813.2716       2.5929903
       7814.2574       2.4823648
       7815.2431       2.6205943
       7816.2288       2.6784896
       7817.2146       2.7905165
       7818.2003       2.3652211
       7819.1860       2.5403880
       7820.1718       2.8008202
       7821.1575       2.5059482
       7822.1432       2.2617253
       7823.1290       2.1404924
       7824.1147       1.7618339
       7825.1004      0.64436334
       7826.0862      0.21750533
       7827.0719      -1.1050423
       7828.0576     -0.82969692
       7829.0434      0.83362489
       7830.0291       1.8923613
       7831.0148       3.2308206
       7832.0006       2.9278828
       7832.9863       3.2576545
       7833.9721       3.4870411
       7834.9578       2.6152740
       7835.9435       2.7940942
       7836.9293       3.1632116
       7837.9150       3.8067506
       7838.9007       5.2357507
       7839.8865       6.2939032
       7840.8722       7.2670741
       7841.8579       6.3799448
       7842.8437       4.8013688
       7843.8294       1.6756993
       7844.8151       1.4802846
       7845.8009       2.0560835
       7846.7866       2.4881604
       7847.7723       2.0896526
       7848.7581       2.2346114
       7849.7438       2.2843555
       7850.7295       2.5510438
       7851.7153       2.9606871
       7852.7010       2.9219015
       7853.6867       2.6533215
       7854.6725       2.6398358
       7855.6582       2.8144872
       7856.6440       3.0503505
       7857.6297       2.6189585
       7858.6154       2.5131565
       7859.6012       2.5120026
       7860.5869       2.5900836
       7861.5726       2.7979351
       7862.5584       2.9417856
       7863.5441       2.8311756
       7864.5298       2.6227409
       7865.5156       2.7446502
       7866.5013       2.6307423
       7867.4870       2.6455759
       7868.4728       2.5257717
       7869.4585       2.6451863
       7870.4442       2.7152504
       7871.4300       2.7769622
       7872.4157       2.8132763
       7873.4014       2.3446638
       7874.3872       1.5932960
       7875.3729       1.7925800
       7876.3586       1.9891024
       7877.3444       2.2407243
       7878.3301       1.9982580
       7879.3159       2.6166181
       7880.3016       2.7046573
       7881.2873       2.9587350
       7882.2731       2.8907442
       7883.2588       2.5606324
       7884.2445       2.3754195
       7885.2303       2.4824711
       7886.2160       3.0432527
       7887.2017       2.9163793
       7888.1875       2.4612637
       7889.1732       2.4560401
       7890.1589       3.2220150
       7891.1447       2.7111705
       7892.1304       2.6546249
       7893.1161       2.7756952
       7894.1019       2.7608177
       7895.0876       2.7886869
       7896.0733       3.0200533
       7897.0591       2.7388274
       7898.0448       2.3760798
       7899.0305       2.7357586
       7900.0163       2.6202262
       7901.0020       2.5733828
       7901.9877       2.7720564
       7902.9735       2.9315051
       7903.9592       2.7137119
       7904.9450       2.4535622
       7905.9307       2.3873755
       7906.9164       2.3737447
       7907.9022       2.5598886
       7908.8879       2.7076336
       7909.8736       2.4853968
       7910.8594       2.4899045
       7911.8451       2.6454221
       7912.8308       2.6221818
       7913.8166       2.6090238
       7914.8023       2.6687756
       7915.7880       2.6754818
       7916.7738       2.6832916
       7917.7595       2.3692317
       7918.7452       2.1335541
       7919.7310       2.2968568
       7920.7167       2.5914215
       7921.7024       2.8045345
       7922.6882       2.4710044
       7923.6739       1.8580670
       7924.6596       2.0528300
       7925.6454       2.8104684
       7926.6311       2.9815894
       7927.6169       2.5048012
       7928.6026       2.9108023
       7929.5883       3.2253377
       7930.5741       3.0774776
       7931.5598       2.9566623
       7932.5455       2.9274104
       7933.5313       2.6521584
       7934.5170       2.5866195
       7935.5027       3.5611317
       7936.4885       4.0817820
       7937.4742       3.2413530
       7938.4599       3.0114670
       7939.4457       2.3293304
       7940.4314       2.5174803
       7941.4171       2.7905861
       7942.4029       3.3431939
       7943.3886       3.1904327
       7944.3743       3.5533413
       7945.3601       3.7141386
       7946.3458       3.7360885
       7947.3315       4.5218126
       7948.3173       4.9854995
       7949.3030       5.5534869
       7950.2888       5.0900943
       7951.2745       4.0461315
       7952.2602       3.8615916
       7953.2460       2.7674472
       7954.2317       2.2771658
       7955.2174       2.4684132
       7956.2032       2.1668979
       7957.1889       2.2662589
       7958.1746       1.9534824
       7959.1604       1.8403185
       7960.1461       3.0962025
       7961.1318       3.3901816
       7962.1176       3.3773459
       7963.1033       3.3066119
       7964.0890       2.8156516
       7965.0748       2.7872792
       7966.0605       2.5715480
       7967.0462       3.3438025
       7968.0320       3.1001084
       7969.0177       2.8134733
       7970.0034       2.4669931
       7970.9892       2.8210205
       7971.9749       3.3898125
       7972.9607       2.9718731
       7973.9464       3.0303722
       7974.9321       2.9053103
       7975.9179       2.7026447
       7976.9036       2.6506437
       7977.8893       2.9235500
       7978.8751       2.6222182
       7979.8608       2.6526747
       7980.8465       2.5683163
       7981.8323       2.8361136
       7982.8180       3.0592944
       7983.8037       2.6825517
       7984.7895       2.7924490
       7985.7752       2.6941459
       7986.7609       2.9166831
       7987.7467       2.6528763
       7988.7324       2.8838124
       7989.7181       2.7054884
       7990.7039       2.7057656
       7991.6896       2.4822467
       7992.6753       2.7207965
       7993.6611       2.6399276
       7994.6468       2.8135960
       7995.6326       2.6229426
       7996.6183       2.4844844
       7997.6040       2.7943991
       7998.5898       2.5763073
       7999.5755       2.5830454
       8000.5612       2.7916170
       8001.5470       2.6104775
       8002.5327       2.6940281
       8003.5184       2.6208027
       8004.5042       2.5662547
       8005.4899       2.8034609
       8006.4756       2.8530812
       8007.4614       2.8154515
       8008.4471       2.6567793
       8009.4328       2.5238062
       8010.4186       2.8976906
       8011.4043       2.7781798
       8012.3900       2.5914172
       8013.3758       2.9250814
       8014.3615       2.9129623
       8015.3472       3.0194313
       8016.3330       2.8933982
       8017.3187       2.8272447
       8018.3045       2.6833487
       8019.2902       2.6221881
       8020.2759       2.9127159
       8021.2617       3.0173691
       8022.2474       3.0981080
       8023.2331       2.9542624
       8024.2189       2.1660378
       8025.2046       2.0737443
       8026.1903       4.5503871
       8027.1761       3.7529901
       8028.1618       2.9775228
       8029.1475       3.4774259
       8030.1333       4.0540261
       8031.1190       4.2070328
       8032.1047       2.7731702
       8033.0905       2.6572468
       8034.0762       2.9678873
       8035.0619       2.1768048
       8036.0477       2.0729921
       8037.0334       2.6363912
       8038.0191       2.4115492
       8039.0049       2.8455206
       8039.9906       2.9002213
       8040.9764       2.5082976
       8041.9621       2.5272035
       8042.9478       2.4369348
       8043.9336       2.6347727
       8044.9193       2.3347587
       8045.9050       2.2131915
       8046.8908       2.4323910
       8047.8765       2.7810298
       8048.8622       2.9136744
       8049.8480       2.6415054
       8050.8337       2.3593544
       8051.8194       2.8107596
       8052.8052       2.9332686
       8053.7909       2.8741826
       8054.7766       2.4100683
       8055.7624       2.4823915
       8056.7481       2.5488312
       8057.7338       2.1614511
       8058.7196       2.1988682
       8059.7053       2.0385711
       8060.6910       2.1029451
       8061.6768       2.4675243
       8062.6625       2.4176974
       8063.6482       2.5496247
       8064.6340       2.4164843
       8065.6197       2.3785486
       8066.6055       2.4993608
       8067.5912       2.3217275
       8068.5769       2.3572404
       8069.5627       2.8637741
       8070.5484       3.1409153
       8071.5341       2.5142916
       8072.5199       2.0829935
       8073.5056       2.2097748
       8074.4913       2.3288731
       8075.4771       2.5410938
       8076.4628       2.4850388
       8077.4485       3.0923941
       8078.4343       3.0263754
       8079.4200       2.7432828
       8080.4057       2.4330120
       8081.3915       2.7349674
