# wavelength flux
       2587.2581     -0.10547602
       2588.1508   -0.0021269076
       2589.0435    -0.023916133
       2589.9362     0.054758883
       2590.8289     0.097089807
       2591.7217     0.014032236
       2592.6144     0.077866736
       2593.5071     0.052967042
       2594.3998     0.081325180
       2595.2925     0.042805149
       2596.1852     0.049832942
       2597.0780     0.025724641
       2597.9707   -0.0022507100
       2598.8634    -0.011283790
       2599.7561     0.041300212
       2600.6488     0.039876336
       2601.5416     0.035594498
       2602.4343     0.050018403
       2603.3270     0.093491091
       2604.2197     0.078185499
       2605.1124      0.11324958
       2606.0051     0.081915978
       2606.8979     0.078115606
       2607.7906     0.059224309
       2608.6833     0.091250323
       2609.5760     0.067646518
       2610.4687     0.021424302
       2611.3615     0.079017468
       2612.2542      0.13390023
       2613.1469     0.084850305
       2614.0396      0.10339531
       2614.9323      0.12290414
       2615.8250     0.051381409
       2616.7178     0.040669495
       2617.6105     0.011356902
       2618.5032    -0.020076590
       2619.3959   -0.0088407041
       2620.2886     0.088751373
       2621.1814      0.10715352
       2622.0741      0.11445410
       2622.9668     0.043390866
       2623.8595     0.032035747
       2624.7522     0.040371486
       2625.6449     0.085742446
       2626.5377     0.055881149
       2627.4304     0.062031983
       2628.3231     0.054644551
       2629.2158     0.043287731
       2630.1085     0.027996501
       2631.0013     0.028397371
       2631.8940     0.070152780
       2632.7867     0.059025589
       2633.6794     0.080876203
       2634.5721     0.061078219
       2635.4648     0.036012154
       2636.3576     0.020883906
       2637.2503     0.078358467
       2638.1430     0.033750953
       2639.0357     0.049421138
       2639.9284     0.042285073
       2640.8212     0.015602133
       2641.7139     0.022595608
       2642.6066      0.13799776
       2643.4993     0.042269867
       2644.3920    0.0051606555
       2645.2847     0.038454466
       2646.1775     0.076233630
       2647.0702     0.032462764
       2647.9629     0.035349546
       2648.8556     0.027218870
       2649.7483     0.054752084
       2650.6411     0.075234633
       2651.5338     0.051688645
       2652.4265     0.081520543
       2653.3192     0.099966781
       2654.2119     0.094240176
       2655.1046     0.072393262
       2655.9974      0.10837679
       2656.8901     0.054598273
       2657.7828     0.093942172
       2658.6755    0.0090610209
       2659.5682     0.028966425
       2660.4610     0.091154418
       2661.3537      0.12896647
       2662.2464     0.078539171
       2663.1391     0.041998525
       2664.0318     0.058409348
       2664.9245     0.069343205
       2665.8173     0.072027307
       2666.7100     0.042114888
       2667.6027     0.018286838
       2668.4954      0.12399742
       2669.3881      0.11054374
       2670.2809      0.13683414
       2671.1736      0.12350406
       2672.0663     0.039180042
       2672.9590   -0.0034053223
       2673.8517  -0.00065052797
       2674.7444     0.084844135
       2675.6372     0.057330340
       2676.5299     0.048740336
       2677.4226     0.050155868
       2678.3153     0.015301136
       2679.2080      0.10579617
       2680.1008      0.10332598
       2680.9935      0.12437383
       2681.8862     0.019686541
       2682.7789     0.091462455
       2683.6716      0.10080645
       2684.5643     0.047868533
       2685.4571     0.040302193
       2686.3498     0.078915441
       2687.2425     0.023724957
       2688.1352     0.031182642
       2689.0279     0.049145989
       2689.9207     0.053802763
       2690.8134     0.096131739
       2691.7061     0.035593389
       2692.5988     0.065400367
       2693.4915     0.063625187
       2694.3842     0.024451661
       2695.2770     0.050539973
       2696.1697     0.014466638
       2697.0624     0.034167269
       2697.9551     0.029506572
       2698.8478     0.011172964
       2699.7406     0.031209295
       2700.6333     0.069266175
       2701.5260     0.052017314
       2702.4187     0.045700454
       2703.3114     0.069344234
       2704.2041      0.10724572
       2705.0969     0.094124589
       2705.9896     0.071014133
       2706.8823     0.073620130
       2707.7750      0.11645591
       2708.6677      0.10629151
       2709.5604     0.061680338
       2710.4532     0.086361496
       2711.3459      0.12559335
       2712.2386      0.10177929
       2713.1313     0.073334179
       2714.0240     0.072927139
       2714.9168      0.12418151
       2715.8095     0.098801203
       2716.7022     0.092060275
       2717.5949      0.10486591
       2718.4876     0.098143664
       2719.3803      0.12235825
       2720.2731      0.10864364
       2721.1658      0.14118750
       2722.0585      0.10262026
       2722.9512     0.091133228
       2723.8439     0.064866284
       2724.7367    0.0089776660
       2725.6294     0.058177936
       2726.5221     0.071858978
       2727.4148      0.11639959
       2728.3075     0.091768814
       2729.2002     0.081221527
       2730.0930     0.093584322
       2730.9857     0.086800698
       2731.8784     0.056595701
       2732.7711      0.12222671
       2733.6638     0.067865400
       2734.5566     0.073025419
       2735.4493     0.047387255
       2736.3420     0.088998513
       2737.2347      0.12100216
       2738.1274     0.053528998
       2739.0201     0.061333325
       2739.9129     0.077334142
       2740.8056     0.087432959
       2741.6983      0.10139860
       2742.5910     0.044117158
       2743.4837      0.10538843
       2744.3765      0.11068451
       2745.2692     0.037903170
       2746.1619     0.072495428
       2747.0546      0.10669710
       2747.9473     0.087638624
       2748.8400     0.044164110
       2749.7328      0.10839995
       2750.6255     0.094214745
       2751.5182     0.077761915
       2752.4109     0.097151104
       2753.3036     0.089672694
       2754.1964     0.088841100
       2755.0891     0.092563911
       2755.9818     0.086319896
       2756.8745     0.098592755
       2757.7672     0.069100748
       2758.6599      0.11218243
       2759.5527     0.079841541
       2760.4454     0.095834721
       2761.3381      0.13454056
       2762.2308      0.10503331
       2763.1235     0.098554014
       2764.0163     0.094819807
       2764.9090     0.092461149
       2765.8017      0.12042770
       2766.6944     0.093627311
       2767.5871      0.10057483
       2768.4798     0.091444699
       2769.3726     0.092422901
       2770.2653      0.10889893
       2771.1580     0.072042575
       2772.0507     0.041447552
       2772.9434     0.055170755
       2773.8362      0.10511289
       2774.7289     0.051128238
       2775.6216    0.0091751832
       2776.5143     0.056337752
       2777.4070     0.037818548
       2778.2997     0.083882397
       2779.1925     0.043517285
       2780.0852     0.027880361
       2780.9779     0.036403874
       2781.8706     0.033918780
       2782.7633     0.049924472
       2783.6561     0.066486389
       2784.5488     0.071292186
       2785.4415     0.069863432
       2786.3342     0.056649034
       2787.2269     0.022219517
       2788.1196     0.068579551
       2789.0124     0.089355794
       2789.9051     0.020121536
       2790.7978     0.063382652
       2791.6905     0.059688975
       2792.5832     0.077656034
       2793.4760     0.054204765
       2794.3687     0.064593676
       2795.2614      0.10714670
       2796.1541     0.095918689
       2797.0468     0.090454413
       2797.9395     0.082226184
       2798.8323     0.057146486
       2799.7250     0.049051672
       2800.6177     0.060998480
       2801.5104     0.097001059
       2802.4031     0.079668256
       2803.2959     0.078849920
       2804.1886      0.10559326
       2805.0813     0.090727662
       2805.9740     0.081280514
       2806.8667     0.072748782
       2807.7594     0.099582311
       2808.6522     0.095409680
       2809.5449     0.070395593
       2810.4376     0.077589078
       2811.3303      0.10736383
       2812.2230      0.11001889
       2813.1158     0.090314731
       2814.0085     0.074164123
       2814.9012     0.072760053
       2815.7939     0.098521978
       2816.6866     0.092358018
       2817.5793      0.12615610
       2818.4721      0.10915977
       2819.3648      0.11965799
       2820.2575     0.088552187
       2821.1502     0.099835748
       2822.0429     0.077834809
       2822.9357     0.071078463
       2823.8284     0.067215153
       2824.7211     0.058942683
       2825.6138     0.071704226
       2826.5065     0.076448410
       2827.3992     0.071342217
       2828.2920     0.071483804
       2829.1847     0.079445036
       2830.0774     0.068251577
       2830.9701     0.077637594
       2831.8628     0.093077596
       2832.7556     0.099887370
       2833.6483      0.10727761
       2834.5410     0.057773742
       2835.4337     0.067627690
       2836.3264      0.10001752
       2837.2191     0.086595185
       2838.1119     0.087293649
       2839.0046     0.067800421
       2839.8973     0.074522193
       2840.7900     0.052010272
       2841.6827     0.081855352
       2842.5755     0.081115961
       2843.4682     0.062089828
       2844.3609     0.051471205
       2845.2536      0.10548396
       2846.1463      0.11273326
       2847.0390      0.10326199
       2847.9318     0.087088648
       2848.8245     0.074217566
       2849.7172     0.091728299
       2850.6099      0.12319018
       2851.5026     0.083330305
       2852.3954     0.051564037
       2853.2881     0.065711254
       2854.1808      0.10161228
       2855.0735      0.10159929
       2855.9662     0.090295268
       2856.8589     0.078805524
       2857.7517     0.060404852
       2858.6444      0.10255543
       2859.5371      0.11733107
       2860.4298      0.10004231
       2861.3225      0.11047984
       2862.2153     0.098464741
       2863.1080     0.075900040
       2864.0007     0.099584244
       2864.8934      0.12195025
       2865.7861      0.11048368
       2866.6788     0.065831774
       2867.5716     0.068727039
       2868.4643     0.071109442
       2869.3570     0.076572459
       2870.2497     0.082065372
       2871.1424     0.062092749
       2872.0352     0.084236918
       2872.9279      0.11166145
       2873.8206      0.14699430
       2874.7133      0.11979115
       2875.6060      0.10685906
       2876.4987     0.057584986
       2877.3915     0.047919949
       2878.2842      0.10686976
       2879.1769     0.080595619
       2880.0696     0.074944898
       2880.9623     0.087011185
       2881.8551     0.064588806
       2882.7478     0.089060342
       2883.6405      0.10025158
       2884.5332     0.094421114
       2885.4259      0.10185027
       2886.3186      0.13042385
       2887.2114     0.093885685
       2888.1041      0.12717860
       2888.9968      0.11764407
       2889.8895     0.086051334
       2890.7822     0.082628899
       2891.6750     0.086629676
       2892.5677     0.085354958
       2893.4604      0.10144286
       2894.3531     0.092563114
       2895.2458     0.095823620
       2896.1385     0.096448213
       2897.0313     0.095750757
       2897.9240      0.10324395
       2898.8167     0.054820716
       2899.7094     0.049230295
       2900.6021     0.071589844
       2901.4949      0.10303749
       2902.3876      0.11711534
       2903.2803      0.10963492
       2904.1730     0.094055106
       2905.0657      0.11389455
       2905.9584     0.095900557
       2906.8512     0.094341345
       2907.7439     0.078399041
       2908.6366     0.081159185
       2909.5293     0.098771724
       2910.4220      0.10028189
       2911.3148      0.10495155
       2912.2075      0.11187412
       2913.1002      0.12390761
       2913.9929     0.097950231
       2914.8856      0.10825127
       2915.7783     0.076875698
       2916.6711      0.10571258
       2917.5638      0.11304489
       2918.4565     0.081197155
       2919.3492     0.067712263
       2920.2419     0.087062460
       2921.1347      0.10331630
       2922.0274      0.11056965
       2922.9201     0.076586609
       2923.8128     0.091280760
       2924.7055     0.090883294
       2925.5982     0.075994012
       2926.4910     0.090232032
       2927.3837     0.093428112
       2928.2764      0.11557562
       2929.1691     0.097147836
       2930.0618     0.051538790
       2930.9546     0.092292365
       2931.8473      0.12638053
       2932.7400      0.11819465
       2933.6327      0.12247814
       2934.5254      0.15228198
       2935.4181      0.14008344
       2936.3109      0.14409871
       2937.2036      0.12710800
       2938.0963      0.11679035
       2938.9890     0.093983463
       2939.8817     0.093741196
       2940.7744     0.093539459
       2941.6672     0.079355331
       2942.5599     0.082319102
       2943.4526     0.099460121
       2944.3453      0.10209580
       2945.2380     0.090407148
       2946.1308     0.082326414
       2947.0235     0.083618864
       2947.9162     0.078294873
       2948.8089     0.071411023
       2949.7016     0.081865121
       2950.5943      0.11081705
       2951.4871      0.11463732
       2952.3798     0.096600720
       2953.2725      0.11280717
       2954.1652      0.10765417
       2955.0579      0.10462713
       2955.9507     0.064675083
       2956.8434     0.097503508
       2957.7361      0.11267814
       2958.6288     0.093301455
       2959.5215     0.079929287
       2960.4142     0.067820128
       2961.3070     0.070709320
       2962.1997     0.089359952
       2963.0924      0.10714150
       2963.9851     0.093455284
       2964.8778      0.10861340
       2965.7706      0.11139433
       2966.6633      0.10859395
       2967.5560      0.10597556
       2968.4487      0.12491049
       2969.3414     0.095173054
       2970.2341     0.081612470
       2971.1269      0.12186890
       2972.0196      0.12054151
       2972.9123      0.12101615
       2973.8050      0.10429560
       2974.6977     0.077056373
       2975.5905      0.12141457
       2976.4832      0.10945027
       2977.3759     0.082810810
       2978.2686     0.096906688
       2979.1613      0.10578489
       2980.0540     0.092167797
       2980.9468     0.064597928
       2981.8395     0.097515733
       2982.7322     0.070377113
       2983.6249     0.073756497
       2984.5176     0.088374111
       2985.4104     0.087055101
       2986.3031     0.095595077
       2987.1958     0.080768404
       2988.0885     0.084408361
       2988.9812      0.11144532
       2989.8739     0.091224768
       2990.7667     0.098430992
       2991.6594      0.11241370
       2992.5521      0.12664581
       2993.4448      0.10540019
       2994.3375     0.088320319
       2995.2303     0.095638982
       2996.1230     0.093145574
       2997.0157      0.12417581
       2997.9084     0.099380035
       2998.8011      0.11051358
       2999.6938      0.10775065
       3000.5866      0.12327787
       3001.4793      0.12408939
       3002.3720      0.12056727
       3003.2647      0.10038980
       3004.1574     0.085655926
       3005.0502     0.097179342
       3005.9429     0.083660175
       3006.8356      0.11461178
       3007.7283      0.12334113
       3008.6210      0.11322853
       3009.5137      0.12736677
       3010.4065      0.13743994
       3011.2992      0.12348051
       3012.1919      0.10012015
       3013.0846     0.066545016
       3013.9773      0.10936299
       3014.8701      0.10400645
       3015.7628     0.080542771
       3016.6555      0.10555338
       3017.5482      0.11463383
       3018.4409      0.10123962
       3019.3336     0.055601932
       3020.2264     0.068159458
       3021.1191      0.14990169
       3022.0118      0.16648787
       3022.9045      0.17762282
       3023.7972      0.15072937
       3024.6900      0.17135909
       3025.5827      0.11400055
       3026.4754     0.064624117
       3027.3681      0.15283873
       3028.2608      0.13932019
       3029.1535      0.13112558
       3030.0463      0.13062803
       3030.9390      0.14625127
       3031.8317      0.14687277
       3032.7244      0.12208997
       3033.6171      0.11724809
       3034.5099      0.14184889
       3035.4026      0.15159574
       3036.2953      0.13021860
       3037.1880      0.13744614
       3038.0807      0.14645859
       3038.9734      0.11380216
       3039.8662     0.091204615
       3040.7589      0.12058740
       3041.6516      0.12982624
       3042.5443      0.12757256
       3043.4370      0.11584841
       3044.3298      0.11093085
       3045.2225     0.090604303
       3046.1152     0.072666726
       3047.0079      0.11592605
       3047.9006      0.16283334
       3048.7933      0.13329775
       3049.6861      0.15837976
       3050.5788      0.11916596
       3051.4715      0.14577413
       3052.3642      0.14048664
       3053.2569      0.11924936
       3054.1497      0.10635943
       3055.0424      0.12185255
       3055.9351      0.11394235
       3056.8278      0.12749263
       3057.7205      0.12554743
       3058.6132      0.13440036
       3059.5060      0.11798383
       3060.3987      0.13721679
       3061.2914      0.15020953
       3062.1841      0.13380900
       3063.0768      0.12736027
       3063.9696      0.12547558
       3064.8623      0.13994747
       3065.7550      0.12198757
       3066.6477      0.13916682
       3067.5404      0.13586171
       3068.4331      0.12766157
       3069.3259      0.12275452
       3070.2186      0.15815176
       3071.1113      0.16536928
       3072.0040      0.15542202
       3072.8967      0.15401517
       3073.7895      0.13501958
       3074.6822      0.12192554
       3075.5749      0.16554692
       3076.4676      0.17990822
       3077.3603      0.15891064
       3078.2530      0.14851295
       3079.1458      0.15532049
       3080.0385      0.12078083
       3080.9312      0.11684947
       3081.8239      0.11117830
       3082.7166      0.15593065
       3083.6094      0.16504290
       3084.5021      0.15819729
       3085.3948      0.16496274
       3086.2875      0.13133499
       3087.1802      0.11081495
       3088.0729     0.081120691
       3088.9657      0.11413042
       3089.8584      0.16757356
       3090.7511      0.12359265
       3091.6438      0.14449055
       3092.5365      0.12719834
       3093.4293      0.13659677
       3094.3220      0.11091905
       3095.2147      0.13312122
       3096.1074      0.17783402
       3097.0001      0.14458098
       3097.8928      0.14530724
       3098.7856      0.13231231
       3099.6783      0.14677494
       3100.5710      0.11745007
       3101.4637      0.15194785
       3102.3564      0.13583429
       3103.2492     0.096372861
       3104.1419      0.12985682
       3105.0346      0.15620411
       3105.9273      0.14607510
       3106.8200      0.13081587
       3107.7127      0.14586438
       3108.6055      0.14008499
       3109.4982      0.13887967
       3110.3909      0.11214136
       3111.2836      0.11863028
       3112.1763      0.14788152
       3113.0691      0.15175088
       3113.9618      0.15100859
       3114.8545      0.13648836
       3115.7472      0.14403231
       3116.6399      0.13195837
       3117.5326      0.14133607
       3118.4254      0.13650454
       3119.3181      0.15825560
       3120.2108      0.11940035
       3121.1035      0.11479364
       3121.9962      0.17217415
       3122.8890      0.14278941
       3123.7817      0.12472489
       3124.6744      0.16998027
       3125.5671      0.17224041
       3126.4598      0.16786839
       3127.3525      0.14515611
       3128.2453      0.14782397
       3129.1380     0.090801867
       3130.0307      0.12395719
       3130.9234      0.13033880
       3131.8161      0.11778410
       3132.7089      0.10915438
       3133.6016      0.14186639
       3134.4943      0.14055151
       3135.3870      0.12666558
       3136.2797      0.14726700
       3137.1724      0.16311746
       3138.0652      0.11706930
       3138.9579      0.14480323
       3139.8506      0.14446762
       3140.7433      0.12822701
       3141.6360      0.14709756
       3142.5288      0.13964899
       3143.4215      0.13034304
       3144.3142      0.11113302
       3145.2069     0.095758405
       3146.0996     0.090425707
       3146.9923     0.083758663
       3147.8851      0.12979651
       3148.7778      0.15726944
       3149.6705      0.13879585
       3150.5632      0.14733930
       3151.4559      0.15550288
       3152.3487      0.12519796
       3153.2414      0.15247607
       3154.1341      0.16086691
       3155.0268      0.16038711
       3155.9195      0.18042629
       3156.8122      0.12442958
       3157.7050      0.14044371
       3158.5977      0.13941408
       3159.4904      0.12316826
       3160.3831      0.13988026
       3161.2758      0.15494718
       3162.1686      0.15039261
       3163.0613      0.11288928
       3163.9540      0.13074421
       3164.8467      0.15850003
       3165.7394      0.12143834
       3166.6321     0.095660983
       3167.5249      0.15380663
       3168.4176      0.15452079
       3169.3103      0.16971150
       3170.2030      0.14081365
       3171.0957      0.14120743
       3171.9885      0.19981381
       3172.8812      0.16998161
       3173.7739      0.11838779
       3174.6666      0.12529116
       3175.5593      0.17029532
       3176.4520      0.16256528
       3177.3448      0.14156175
       3178.2375      0.15098315
       3179.1302      0.14669781
       3180.0229      0.14872928
       3180.9156      0.13346579
       3181.8083      0.13659284
       3182.7011      0.12169328
       3183.5938      0.10931473
       3184.4865      0.16933909
       3185.3792      0.12983725
       3186.2719      0.11390344
       3187.1647      0.13853645
       3188.0574      0.13738908
       3188.9501      0.13210964
       3189.8428      0.13843713
       3190.7355      0.11199485
       3191.6282      0.12482601
       3192.5210      0.14744161
       3193.4137      0.13577042
       3194.3064      0.15349600
       3195.1991      0.13839448
       3196.0918      0.14065292
       3196.9846      0.14129492
       3197.8773      0.18483657
       3198.7700      0.16049591
       3199.6627      0.14874453
       3200.5554      0.14302141
       3201.4481      0.15778191
       3202.3409      0.15001734
       3203.2336      0.16494053
       3204.1263      0.14645508
       3205.0190      0.16274187
       3205.9117      0.15627880
       3206.8045      0.17232075
       3207.6972      0.13773479
       3208.5899      0.12472296
       3209.4826      0.13954453
       3210.3753      0.11835343
       3211.2680      0.12626504
       3212.1608      0.16436929
       3213.0535      0.13241113
       3213.9462      0.13682441
       3214.8389      0.13205282
       3215.7316      0.15424532
       3216.6244      0.15036985
       3217.5171      0.13995465
       3218.4098      0.13575632
       3219.3025      0.16796736
       3220.1952      0.15961903
       3221.0879      0.14422754
       3221.9807      0.13426812
       3222.8734      0.16704482
       3223.7661      0.15718810
       3224.6588      0.15709463
       3225.5515      0.16354556
       3226.4443      0.15390414
       3227.3370      0.12544649
       3228.2297      0.12686291
       3229.1224      0.11978585
       3230.0151      0.13330064
       3230.9078      0.13573057
       3231.8006      0.16543350
       3232.6933      0.15652715
       3233.5860      0.12821321
       3234.4787      0.14827726
       3235.3714      0.16914363
       3236.2642      0.15329254
       3237.1569      0.14372307
       3238.0496      0.15264753
       3238.9423      0.15461760
       3239.8350      0.14899740
       3240.7277      0.16707671
       3241.6205      0.16375924
       3242.5132      0.13558903
       3243.4059      0.14398926
       3244.2986      0.16475798
       3245.1913      0.18741324
       3246.0841      0.16746977
       3246.9768      0.14867077
       3247.8695      0.14873697
       3248.7622      0.17676494
       3249.6549      0.16022157
       3250.5476      0.16786385
       3251.4404      0.17193872
       3252.3331      0.13869227
       3253.2258      0.13397974
       3254.1185      0.14672938
       3255.0112      0.18295599
       3255.9040      0.19274047
       3256.7967      0.16975625
       3257.6894      0.15642461
       3258.5821      0.19450950
       3259.4748      0.18130362
       3260.3675      0.15876665
       3261.2603      0.16444941
       3262.1530      0.16118032
       3263.0457      0.16574284
       3263.9384      0.16406361
       3264.8311      0.17357131
       3265.7239      0.18120200
       3266.6166      0.17290103
       3267.5093      0.13794572
       3268.4020      0.17121411
       3269.2947      0.16557951
       3270.1874      0.18955748
       3271.0802      0.17099909
       3271.9729      0.19445611
       3272.8656      0.17170603
       3273.7583      0.17725837
       3274.6510      0.19378765
       3275.5438      0.18757841
       3276.4365      0.17502527
       3277.3292      0.18600237
       3278.2219      0.16681151
       3279.1146      0.18122434
       3280.0073      0.14791540
       3280.9001      0.18573313
       3281.7928      0.15300793
       3282.6855      0.17085119
       3283.5782      0.15970937
       3284.4709      0.15613849
       3285.3637      0.15511554
       3286.2564      0.17868093
       3287.1491      0.17568604
       3288.0418      0.20166048
       3288.9345      0.20073957
       3289.8272      0.16887865
       3290.7200      0.18144149
       3291.6127      0.18934849
       3292.5054      0.17944600
       3293.3981      0.23318392
       3294.2908      0.23226127
       3295.1836      0.24189461
       3296.0763      0.21639912
       3296.9690      0.18601747
       3297.8617      0.19152710
       3298.7544      0.20561549
       3299.6471      0.21385868
       3300.5399      0.21385064
       3301.4326      0.22413999
       3302.3253      0.22839443
       3303.2180      0.20923770
       3304.1107      0.20354522
       3305.0035      0.20614278
       3305.8962      0.21036493
       3306.7889      0.19172739
       3307.6816      0.21360197
       3308.5743      0.17697982
       3309.4670      0.20998455
       3310.3598      0.19002779
       3311.2525      0.17398012
       3312.1452      0.22278181
       3313.0379      0.18309937
       3313.9306      0.18285061
       3314.8234      0.19685651
       3315.7161      0.19320467
       3316.6088      0.20112285
       3317.5015      0.16274710
       3318.3942      0.18768886
       3319.2869      0.19043244
       3320.1797      0.16270120
       3321.0724      0.20499189
       3321.9651      0.23593406
       3322.8578      0.21931216
       3323.7505      0.20041176
       3324.6433      0.21412586
       3325.5360      0.19289689
       3326.4287      0.20405720
       3327.3214      0.22579339
       3328.2141      0.20220886
       3329.1068      0.23150231
       3329.9996      0.17299761
       3330.8923      0.20068960
       3331.7850      0.18679789
       3332.6777      0.19956341
       3333.5704      0.20729214
       3334.4632      0.18739033
       3335.3559      0.19250847
       3336.2486      0.19405553
       3337.1413      0.19548310
       3338.0340      0.21321799
       3338.9267      0.16556020
       3339.8195      0.15739370
       3340.7122      0.19271711
       3341.6049      0.18697924
       3342.4976      0.18044234
       3343.3903      0.20227567
       3344.2831      0.23154147
       3345.1758      0.21288404
       3346.0685      0.17871156
       3346.9612      0.22866440
       3347.8539      0.24056716
       3348.7466      0.20839462
       3349.6394      0.19437701
       3350.5321      0.18563247
       3351.4248      0.18480732
       3352.3175      0.17334280
       3353.2102      0.17190490
       3354.1030      0.18070517
       3354.9957      0.20649497
       3355.8884      0.21888843
       3356.7811      0.21556734
       3357.6738      0.22526836
       3358.5665      0.20325214
       3359.4593      0.19134033
       3360.3520      0.17361911
       3361.2447      0.20610592
       3362.1374      0.18648808
       3363.0301      0.17036153
       3363.9229      0.15894968
       3364.8156      0.19323662
       3365.7083      0.22448610
       3366.6010      0.18581624
       3367.4937      0.17512251
       3368.3864      0.18635801
       3369.2792      0.20084774
       3370.1719      0.17574664
       3371.0646      0.20406130
       3371.9573      0.19330248
       3372.8500      0.17619702
       3373.7428      0.18163362
       3374.6355      0.19560135
       3375.5282      0.18495828
       3376.4209      0.20307732
       3377.3136      0.21251257
       3378.2063      0.22871804
       3379.0991      0.19458080
       3379.9918      0.22861931
       3380.8845      0.21746223
       3381.7772      0.21485460
       3382.6699      0.20540339
       3383.5627      0.17578073
       3384.4554      0.20173678
       3385.3481      0.19661021
       3386.2408      0.21758256
       3387.1335      0.24758754
       3388.0262      0.19731348
       3388.9190      0.18481660
       3389.8117      0.16928131
       3390.7044      0.24781816
       3391.5971      0.19362924
       3392.4898      0.21516916
       3393.3826      0.21889343
       3394.2753      0.21483728
       3395.1680      0.18936055
       3396.0607      0.20035124
       3396.9534      0.21623829
       3397.8461      0.21517830
       3398.7389      0.25599991
       3399.6316      0.24791310
       3400.5243      0.22945297
       3401.4170      0.22908465
       3402.3097      0.23101098
       3403.2025      0.25514739
       3404.0952      0.23860644
       3404.9879      0.22538113
       3405.8806      0.20368707
       3406.7733      0.23788838
       3407.6660      0.24823991
       3408.5588      0.24562659
       3409.4515      0.25680898
       3410.3442      0.24130718
       3411.2369      0.21767236
       3412.1296      0.22728437
       3413.0223      0.24839817
       3413.9151      0.25507761
       3414.8078      0.22592405
       3415.7005      0.25375013
       3416.5932      0.22557611
       3417.4859      0.22315590
       3418.3787      0.20507386
       3419.2714      0.16240902
       3420.1641      0.20082709
       3421.0568      0.21391725
       3421.9495      0.23435601
       3422.8422      0.25794255
       3423.7350      0.23689000
       3424.6277      0.21120469
       3425.5204      0.23412022
       3426.4131      0.24614072
       3427.3058      0.17701941
       3428.1986      0.20331666
       3429.0913      0.22003425
       3429.9840      0.20925121
       3430.8767      0.26015691
       3431.7694      0.22484349
       3432.6621      0.23308455
       3433.5549      0.26215211
       3434.4476      0.26673147
       3435.3403      0.27740720
       3436.2330      0.24973754
       3437.1257      0.25795304
       3438.0185      0.22333009
       3438.9112      0.25644143
       3439.8039      0.27376424
       3440.6966      0.26825736
       3441.5893      0.24616840
       3442.4820      0.23088781
       3443.3748      0.21622591
       3444.2675      0.22899608
       3445.1602      0.21341690
       3446.0529      0.21842041
       3446.9456      0.20527981
       3447.8384      0.19060598
       3448.7311      0.20943427
       3449.6238      0.24178707
       3450.5165      0.21975730
       3451.4092      0.25436599
       3452.3019      0.24470617
       3453.1947      0.26527139
       3454.0874      0.25619925
       3454.9801      0.24105471
       3455.8728      0.26209942
       3456.7655      0.29151871
       3457.6583      0.21447030
       3458.5510      0.23567293
       3459.4437      0.22032663
       3460.3364      0.21283925
       3461.2291      0.23804335
       3462.1218      0.22496142
       3463.0146      0.20637477
       3463.9073      0.20256221
       3464.8000      0.19332417
       3465.6927      0.24389028
       3466.5854      0.23582073
       3467.4782      0.25386596
       3468.3709      0.25376266
       3469.2636      0.20466327
       3470.1563      0.22898804
       3471.0490      0.24820404
       3471.9417      0.25671759
       3472.8345      0.30230161
       3473.7272      0.24830571
       3474.6199      0.23727676
       3475.5126      0.27135864
       3476.4053      0.24300751
       3477.2981      0.23649081
       3478.1908      0.22530380
       3479.0835      0.24072116
       3479.9762      0.22687270
       3480.8689      0.24637439
       3481.7616      0.25034996
       3482.6544      0.20245492
       3483.5471      0.22400582
       3484.4398      0.24346260
       3485.3325      0.23755769
       3486.2252      0.22191049
       3487.1180      0.20378777
       3488.0107      0.24881076
       3488.9034      0.23162660
       3489.7961      0.23888244
       3490.6888      0.21895119
       3491.5815      0.25609834
       3492.4743      0.22877035
       3493.3670      0.24951140
       3494.2597      0.22001506
       3495.1524      0.22016700
       3496.0451      0.25260678
       3496.9379      0.26747510
       3497.8306      0.21100411
       3498.7233      0.25435851
       3499.6160      0.27707791
       3500.5087      0.24636095
       3501.4014      0.25569972
       3502.2942      0.27728409
       3503.1869      0.25711458
       3504.0796      0.25338475
       3504.9723      0.26194052
       3505.8650      0.27619059
       3506.7578      0.28303488
       3507.6505      0.28704801
       3508.5432      0.27899211
       3509.4359      0.28227659
       3510.3286      0.26086413
       3511.2213      0.24363311
       3512.1141      0.26685478
       3513.0068      0.26311751
       3513.8995      0.24530628
       3514.7922      0.22724168
       3515.6849      0.25243467
       3516.5777      0.21198166
       3517.4704      0.24429200
       3518.3631      0.24701714
       3519.2558      0.25912531
       3520.1485      0.25667028
       3521.0412      0.25635802
       3521.9340      0.28113428
       3522.8267      0.29292498
       3523.7194      0.24523664
       3524.6121      0.24387315
       3525.5048      0.25384238
       3526.3976      0.23518603
       3527.2903      0.24097380
       3528.1830      0.23963314
       3529.0757      0.23480834
       3529.9684      0.22720342
       3530.8611      0.21432700
       3531.7539      0.22205736
       3532.6466      0.24643842
       3533.5393      0.25017514
       3534.4320      0.21872607
       3535.3247      0.20854917
       3536.2175      0.26943804
       3537.1102      0.24688687
       3538.0029      0.21143552
       3538.8956      0.23523096
       3539.7883      0.25352812
       3540.6810      0.28297690
       3541.5738      0.34596326
       3542.4665      0.28523112
       3543.3592      0.27902508
       3544.2519      0.27088907
       3545.1446      0.27863193
       3546.0374      0.30830343
       3546.9301      0.29180133
       3547.8228      0.24782837
       3548.7155      0.24757947
       3549.6082      0.28231351
       3550.5009      0.27237105
       3551.3937      0.27135222
       3552.2864      0.29776569
       3553.1791      0.27044538
       3554.0718      0.26037942
       3554.9645      0.28098051
       3555.8573      0.25276322
       3556.7500      0.22154989
       3557.6427      0.25645857
       3558.5354      0.28368189
       3559.4281      0.27368443
       3560.3208      0.24680878
       3561.2136      0.29156130
       3562.1063      0.29078151
       3562.9990      0.27093096
       3563.8917      0.26557709
       3564.7844      0.23987111
       3565.6772      0.28331123
       3566.5699      0.24155638
       3567.4626      0.18717809
       3568.3553      0.24186125
       3569.2480      0.26650049
       3570.1407      0.21615302
       3571.0335      0.20814255
       3571.9262      0.22639892
       3572.8189      0.21037510
       3573.7116      0.21051129
       3574.6043      0.24318496
       3575.4971      0.26489516
       3576.3898      0.23352830
       3577.2825      0.25116668
       3578.1752      0.25062693
       3579.0679      0.26914893
       3579.9606      0.24564580
       3580.8534      0.24414658
       3581.7461      0.19757725
       3582.6388      0.21288530
       3583.5315      0.20432369
       3584.4242      0.23587978
       3585.3170      0.20724743
       3586.2097      0.23562480
       3587.1024      0.22267642
       3587.9951      0.19041425
       3588.8878      0.20422813
       3589.7805      0.21993320
       3590.6733      0.22413305
       3591.5660      0.21399932
       3592.4587      0.23117370
       3593.3514      0.26048699
       3594.2441      0.24588859
       3595.1369      0.26612311
       3596.0296      0.28061939
       3596.9223      0.29445435
       3597.8150      0.28968142
       3598.7077      0.27344723
       3599.6004      0.30264150
       3600.4932      0.29356200
       3601.3859      0.28867156
       3602.2786      0.31595422
       3603.1713      0.30683897
       3604.0640      0.22528436
       3604.9568      0.20535896
       3605.8495      0.24691639
       3606.7422      0.24695662
       3607.6349      0.24616660
       3608.5276      0.23630118
       3609.4203      0.24309573
       3610.3131      0.24393095
       3611.2058      0.26544326
       3612.0985      0.24491438
       3612.9912      0.23231708
       3613.8839      0.25488205
       3614.7767      0.28632579
       3615.6694      0.27866591
       3616.5621      0.29212553
       3617.4548      0.24873867
       3618.3475      0.29163186
       3619.2402      0.25444877
       3620.1330      0.28725457
       3621.0257      0.23582721
       3621.9184      0.28524273
       3622.8111      0.29705998
       3623.7038      0.26876168
       3624.5966      0.34048325
       3625.4893      0.32977488
       3626.3820      0.31902600
       3627.2747      0.32621146
       3628.1674      0.30297410
       3629.0601      0.31930938
       3629.9529      0.26800387
       3630.8456      0.25935038
       3631.7383      0.31158259
       3632.6310      0.26617353
       3633.5237      0.29404361
       3634.4165      0.27756108
       3635.3092      0.25056006
       3636.2019      0.26164181
       3637.0946      0.30592975
       3637.9873      0.31112758
       3638.8800      0.31762253
       3639.7728      0.30815262
       3640.6655      0.29189101
       3641.5582      0.30609739
       3642.4509      0.28900739
       3643.3436      0.32368355
       3644.2363      0.33217186
       3645.1291      0.30534542
       3646.0218      0.28767889
       3646.9145      0.26852621
       3647.8072      0.29079972
       3648.6999      0.29752551
       3649.5927      0.34687828
       3650.4854      0.34975323
       3651.3781      0.32526549
       3652.2708      0.27128820
       3653.1635      0.26907777
       3654.0562      0.33926844
       3654.9490      0.32648607
       3655.8417      0.31306023
       3656.7344      0.34272708
       3657.6271      0.30448236
       3658.5198      0.31766412
       3659.4126      0.31022470
       3660.3053      0.36188880
       3661.1980      0.35796459
       3662.0907      0.29398267
       3662.9834      0.31448702
       3663.8761      0.35514111
       3664.7689      0.34761827
       3665.6616      0.31311923
       3666.5543      0.34616077
       3667.4470      0.30964270
       3668.3397      0.31350430
       3669.2325      0.30345433
       3670.1252      0.32703621
       3671.0179      0.33733351
       3671.9106      0.35026167
       3672.8033      0.33440981
       3673.6960      0.36178668
       3674.5888      0.30895593
       3675.4815      0.30103623
       3676.3742      0.31074204
       3677.2669      0.33581119
       3678.1596      0.26521623
       3679.0524      0.29863408
       3679.9451      0.31299264
       3680.8378      0.32871042
       3681.7305      0.33963131
       3682.6232      0.28509513
       3683.5159      0.35437481
       3684.4087      0.31626842
       3685.3014      0.30985576
       3686.1941      0.32256212
       3687.0868      0.31938842
       3687.9795      0.27931841
       3688.8723      0.28899527
       3689.7650      0.32347758
       3690.6577      0.34953040
       3691.5504      0.39229309
       3692.4431      0.34915719
       3693.3358      0.30185392
       3694.2286      0.40043342
       3695.1213      0.36833804
       3696.0140      0.33902466
       3696.9067      0.33672637
       3697.7994      0.39872753
       3698.6922      0.35871617
       3699.5849      0.32549321
       3700.4776      0.35675125
       3701.3703      0.33556774
       3702.2630      0.31009538
       3703.1557      0.32811187
       3704.0485      0.31032563
       3704.9412      0.30961538
       3705.8339      0.31891876
       3706.7266      0.31466810
       3707.6193      0.31270811
       3708.5121      0.32701928
       3709.4048      0.31211383
       3710.2975      0.31404729
       3711.1902      0.30592127
       3712.0829      0.34423334
       3712.9756      0.34785541
       3713.8684      0.34604298
       3714.7611      0.38918196
       3715.6538      0.34644713
       3716.5465      0.36180260
       3717.4392      0.34201243
       3718.3320      0.33829874
       3719.2247      0.31405662
       3720.1174      0.26812253
       3721.0101      0.29572095
       3721.9028      0.32475202
       3722.7955      0.39799786
       3723.6883      0.34728616
       3724.5810      0.45202428
       3725.4737      0.47073918
       3726.3664      0.52834030
       3727.2591      0.51399197
       3728.1519      0.48370112
       3729.0446      0.47480074
       3729.9373      0.39935279
       3730.8300      0.33342229
       3731.7227      0.28553638
       3732.6154      0.26160534
       3733.5082      0.32976302
       3734.4009      0.26485208
       3735.2936      0.27184438
       3736.1863      0.25609439
       3737.0790      0.26964118
       3737.9718      0.29691195
       3738.8645      0.32131785
       3739.7572      0.39745900
       3740.6499      0.35174931
       3741.5426      0.31015690
       3742.4353      0.34531955
       3743.3281      0.30229943
       3744.2208      0.31902457
       3745.1135      0.31740228
       3746.0062      0.27378684
       3746.8989      0.27606843
       3747.7917      0.22876333
       3748.6844      0.28003532
       3749.5771      0.29916701
       3750.4698      0.28553458
       3751.3625      0.30639592
       3752.2552      0.34664811
       3753.1480      0.34518277
       3754.0407      0.41423220
       3754.9334      0.38429885
       3755.8261      0.33660588
       3756.7188      0.32842149
       3757.6116      0.40964996
       3758.5043      0.39643623
       3759.3970      0.36668165
       3760.2897      0.41019270
       3761.1824      0.35411226
       3762.0751      0.38157355
       3762.9679      0.37662408
       3763.8606      0.41307431
       3764.7533      0.36861603
       3765.6460      0.36329865
       3766.5387      0.31079192
       3767.4315      0.30741285
       3768.3242      0.32956609
       3769.2169      0.36111320
       3770.1096      0.32222467
       3771.0023      0.34156894
       3771.8950      0.36950070
       3772.7878      0.35130507
       3773.6805      0.40060892
       3774.5732      0.40705969
       3775.4659      0.45154016
       3776.3586      0.43942906
       3777.2514      0.48777379
       3778.1441      0.51684717
       3779.0368      0.48164216
       3779.9295      0.48698875
       3780.8222      0.46275850
       3781.7149      0.47507590
       3782.6077      0.47712860
       3783.5004      0.42885426
       3784.3931      0.42733247
       3785.2858      0.45677442
       3786.1785      0.40265116
       3787.0713      0.39740485
       3787.9640      0.43384431
       3788.8567      0.38203271
       3789.7494      0.38815893
       3790.6421      0.39455946
       3791.5348      0.37935271
       3792.4276      0.32050574
       3793.3203      0.31753563
       3794.2130      0.29259199
       3795.1057      0.35464020
       3795.9984      0.30541125
       3796.8912      0.29434193
       3797.7839      0.31076814
       3798.6766      0.40670739
       3799.5693      0.37348095
       3800.4620      0.38628840
       3801.3547      0.37006888
       3802.2475      0.43664476
       3803.1402      0.41317034
       3804.0329      0.43651985
       3804.9256      0.44028849
       3805.8183      0.42018066
       3806.7111      0.43631971
       3807.6038      0.45766811
       3808.4965      0.45731509
       3809.3892      0.41353498
       3810.2819      0.50786868
       3811.1746      0.46844357
       3812.0674      0.43578413
       3812.9601      0.43862641
       3813.8528      0.41068938
       3814.7455      0.38441068
       3815.6382      0.43439521
       3816.5310      0.40737197
       3817.4237      0.41594288
       3818.3164      0.43992441
       3819.2091      0.37768986
       3820.1018      0.38688150
       3820.9945      0.38927470
       3821.8873      0.38069575
       3822.7800      0.37195272
       3823.6727      0.37380808
       3824.5654      0.39961495
       3825.4581      0.30085149
       3826.3509      0.32007664
       3827.2436      0.30066135
       3828.1363      0.26698826
       3829.0290      0.29004463
       3829.9217      0.32577051
       3830.8144      0.27465028
       3831.7072      0.25844737
       3832.5999      0.23766183
       3833.4926      0.34150606
       3834.3853      0.30987301
       3835.2780      0.29026681
       3836.1708      0.32837988
       3837.0635      0.34804101
       3837.9562      0.34309141
       3838.8489      0.39682474
       3839.7416      0.39302856
       3840.6343      0.44963859
       3841.5271      0.36738284
       3842.4198      0.39755815
       3843.3125      0.45858465
       3844.2052      0.47007211
       3845.0979      0.46797139
       3845.9907      0.42311133
       3846.8834      0.47505134
       3847.7761      0.44973832
       3848.6688      0.42033914
       3849.5615      0.45524312
       3850.4542      0.43304855
       3851.3470      0.46436583
       3852.2397      0.45785730
       3853.1324      0.44820616
       3854.0251      0.49384792
       3854.9178      0.41572859
       3855.8106      0.43289677
       3856.7033      0.49534076
       3857.5960      0.44548165
       3858.4887      0.49561198
       3859.3814      0.53157359
       3860.2741      0.43341222
       3861.1669      0.48503249
       3862.0596      0.48797531
       3862.9523      0.51463227
       3863.8450      0.46243385
       3864.7377      0.46314505
       3865.6305      0.47607437
       3866.5232      0.47622452
       3867.4159      0.38743640
       3868.3086      0.38423230
       3869.2013      0.44443070
       3870.0940      0.48874540
       3870.9868      0.47593042
       3871.8795      0.47308256
       3872.7722      0.46740408
       3873.6649      0.45753272
       3874.5576      0.41256674
       3875.4503      0.36730345
       3876.3431      0.40667592
       3877.2358      0.44171503
       3878.1285      0.37853059
       3879.0212      0.42099487
       3879.9139      0.38805892
       3880.8067      0.39506116
       3881.6994      0.36868118
       3882.5921      0.37378825
       3883.4848      0.35345772
       3884.3775      0.33062715
       3885.2702      0.30067964
       3886.1630      0.36378884
       3887.0557      0.39149779
       3887.9484      0.34767195
       3888.8411      0.41931569
       3889.7338      0.38859653
       3890.6266      0.41042350
       3891.5193      0.43323067
       3892.4120      0.42081611
       3893.3047      0.42391224
       3894.1974      0.47183824
       3895.0901      0.42032533
       3895.9829      0.48376346
       3896.8756      0.47257383
       3897.7683      0.49115660
       3898.6610      0.47869036
       3899.5537      0.47135059
       3900.4465      0.44760420
       3901.3392      0.45694408
       3902.2319      0.43389910
       3903.1246      0.53926821
       3904.0173      0.49377014
       3904.9100      0.50342234
       3905.8028      0.53858115
       3906.6955      0.52691248
       3907.5882      0.53116250
       3908.4809      0.48898876
       3909.3736      0.57332686
       3910.2664      0.46138794
       3911.1591      0.45923790
       3912.0518      0.46804723
       3912.9445      0.52719170
       3913.8372      0.50573884
       3914.7299      0.52287725
       3915.6227      0.46574709
       3916.5154      0.47312773
       3917.4081      0.49999743
       3918.3008      0.42817449
       3919.1935      0.44892980
       3920.0863      0.37127962
       3920.9790      0.49054548
       3921.8717      0.43431035
       3922.7644      0.38647711
       3923.6571      0.33178208
       3924.5498      0.33408421
       3925.4426      0.23454480
       3926.3353      0.26997323
       3927.2280      0.23001207
       3928.1207      0.23706056
       3929.0134      0.24090938
       3929.9062      0.26933362
       3930.7989      0.28259499
       3931.6916      0.35630528
       3932.5843      0.38146404
       3933.4770      0.43244221
       3934.3697      0.39774428
       3935.2625      0.47023974
       3936.1552      0.41285679
       3937.0479      0.49704503
       3937.9406      0.46180336
       3938.8333      0.44490192
       3939.7261      0.48433591
       3940.6188      0.50677021
       3941.5115      0.46056233
       3942.4042      0.52680419
       3943.2969      0.51551045
       3944.1896      0.51255104
       3945.0824      0.50143858
       3945.9751      0.50624864
       3946.8678      0.56136858
       3947.7605      0.51738121
       3948.6532      0.52157155
       3949.5460      0.52298433
       3950.4387      0.54984784
       3951.3314      0.44492504
       3952.2241      0.46734293
       3953.1168      0.48089552
       3954.0095      0.45446262
       3954.9023      0.46621872
       3955.7950      0.36575525
       3956.6877      0.30704671
       3957.5804      0.35563812
       3958.4731      0.33225345
       3959.3659      0.25584733
       3960.2586      0.22817325
       3961.1513      0.28314822
       3962.0440      0.20048551
       3962.9367      0.24361454
       3963.8294      0.25974641
       3964.7222      0.29317348
       3965.6149      0.34071220
       3966.5076      0.32502473
       3967.4003      0.35900669
       3968.2930      0.42337331
       3969.1858      0.39806334
       3970.0785      0.51267408
       3970.9712      0.44537417
       3971.8639      0.45409635
       3972.7566      0.53506242
       3973.6493      0.53944810
       3974.5421      0.51416993
       3975.4348      0.52957181
       3976.3275      0.62712033
       3977.2202      0.56131021
       3978.1129      0.53247083
       3979.0057      0.57845373
       3979.8984      0.55380253
       3980.7911      0.61201181
       3981.6838      0.58921388
       3982.5765      0.59808358
       3983.4692      0.60747538
       3984.3620      0.61156197
       3985.2547      0.60335943
       3986.1474      0.71967946
       3987.0401      0.58838636
       3987.9328      0.59386495
       3988.8256      0.51246328
       3989.7183      0.61860943
       3990.6110      0.60863187
       3991.5037      0.65860949
       3992.3964      0.62314554
       3993.2891      0.61417969
       3994.1819      0.64402472
       3995.0746      0.53431163
       3995.9673      0.62828608
       3996.8600      0.62641041
       3997.7527      0.63416616
       3998.6455      0.55827696
       3999.5382      0.60477813
       4000.4309      0.63956575
       4001.3236      0.60298874
       4002.2163      0.58997042
       4003.1090      0.67998288
       4004.0018      0.63902611
       4004.8945      0.57606795
       4005.7872      0.65453913
       4006.6799      0.65808358
       4007.5726      0.63521203
       4008.4654      0.66980718
       4009.3581      0.62271385
       4010.2508      0.68194639
       4011.1435      0.63255773
       4012.0362      0.60539840
       4012.9289      0.70979463
       4013.8217      0.62357585
       4014.7144      0.60821595
       4015.6071      0.66277720
       4016.4998      0.67071790
       4017.3925      0.64563020
       4018.2853      0.66858608
       4019.1780      0.68989920
       4020.0707      0.71056869
       4020.9634      0.63101729
       4021.8561      0.63886111
       4022.7488      0.55723347
       4023.6416      0.53597641
       4024.5343      0.58540103
       4025.4270      0.61039028
       4026.3197      0.66047614
       4027.2124      0.63405827
       4028.1052      0.66442888
       4028.9979      0.73111830
       4029.8906      0.71316734
       4030.7833      0.69642811
       4031.6760      0.70763922
       4032.5687      0.68800809
       4033.4615      0.62270338
       4034.3542      0.58335064
       4035.2469      0.63017843
       4036.1396      0.63816763
       4037.0323      0.58743116
       4037.9251      0.56741150
       4038.8178      0.56985614
       4039.7105      0.62747138
       4040.6032      0.76553405
       4041.4959      0.67773016
       4042.3886      0.70093675
       4043.2814      0.64359326
       4044.1741      0.67433777
       4045.0668      0.63318637
       4045.9595      0.65410084
       4046.8522      0.56385547
       4047.7450      0.63832595
       4048.6377      0.65289672
       4049.5304      0.57021395
       4050.4231      0.67211788
       4051.3158      0.58002791
       4052.2085      0.63088954
       4053.1013      0.65356921
       4053.9940      0.60643318
       4054.8867      0.55520514
       4055.7794      0.56908427
       4056.6721      0.61510797
       4057.5649      0.61846621
       4058.4576      0.59450982
       4059.3503      0.66097393
       4060.2430      0.69580071
       4061.1357      0.71980301
       4062.0284      0.63551075
       4062.9212      0.62369726
       4063.8139      0.58453196
       4064.7066      0.62194114
       4065.5993      0.62287095
       4066.4920      0.54542607
       4067.3848      0.57728600
       4068.2775      0.64192170
       4069.1702      0.62954004
       4070.0629      0.64253571
       4070.9556      0.60732321
       4071.8483      0.65948184
       4072.7411      0.62416822
       4073.6338      0.59061935
       4074.5265      0.70636145
       4075.4192      0.66976833
       4076.3119      0.65484559
       4077.2047      0.67130735
       4078.0974      0.69199866
       4078.9901      0.67843024
       4079.8828      0.65448902
       4080.7755      0.58679653
       4081.6682      0.62474533
       4082.5610      0.62267006
       4083.4537      0.60083868
       4084.3464      0.64167671
       4085.2391      0.57048883
       4086.1318      0.53325069
       4087.0246      0.49859782
       4087.9173      0.50322121
       4088.8100      0.50863512
       4089.7027      0.55289232
       4090.5954      0.45783115
       4091.4881      0.44724496
       4092.3809      0.48187541
       4093.2736      0.52733167
       4094.1663      0.58539293
       4095.0590      0.61896749
       4095.9517      0.57006594
       4096.8445      0.58270262
       4097.7372      0.63077163
       4098.6299      0.56695845
       4099.5226      0.62207050
       4100.4153      0.66044869
       4101.3080      0.65445969
       4102.2008      0.66692485
       4103.0935      0.60996529
       4103.9862      0.71413311
       4104.8789      0.64765965
       4105.7716      0.58184142
       4106.6644      0.59413877
       4107.5571      0.64836143
       4108.4498      0.63854825
       4109.3425      0.64511894
       4110.2352      0.62385595
       4111.1279      0.72062992
       4112.0207      0.69660479
       4112.9134      0.70413368
       4113.8061      0.67244956
       4114.6988      0.68203202
       4115.5915      0.68746599
       4116.4842      0.58890471
       4117.3770      0.63220783
       4118.2697      0.58232443
       4119.1624      0.72147604
       4120.0551      0.62342497
       4120.9478      0.62091205
       4121.8406      0.63375158
       4122.7333      0.60640458
       4123.6260      0.66190497
       4124.5187      0.67052945
       4125.4114      0.67304103
       4126.3041      0.73344793
       4127.1969      0.70597330
       4128.0896      0.70304480
       4128.9823      0.65547633
       4129.8750      0.60839722
       4130.7677      0.63879376
       4131.6605      0.65334106
       4132.5532      0.57817178
       4133.4459      0.65521078
       4134.3386      0.60185355
       4135.2313      0.63533784
       4136.1240      0.66427521
       4137.0168      0.69793334
       4137.9095      0.64337019
       4138.8022      0.74155851
       4139.6949      0.57804026
       4140.5876      0.64972850
       4141.4804      0.62405964
       4142.3731      0.67782685
       4143.2658      0.65761994
       4144.1585      0.67561806
       4145.0512      0.70160622
       4145.9439      0.66242390
       4146.8367      0.67154664
       4147.7294      0.70770060
       4148.6221      0.67389542
       4149.5148      0.67448418
       4150.4075      0.73500271
       4151.3003      0.69390996
       4152.1930      0.67601283
       4153.0857      0.64684256
       4153.9784      0.72037787
       4154.8711      0.66728280
       4155.7638      0.69253613
       4156.6566      0.70828330
       4157.5493      0.69460610
       4158.4420      0.63398204
       4159.3347      0.62248498
       4160.2274      0.59928017
       4161.1202      0.64220170
       4162.0129      0.68110201
       4162.9056      0.67194173
       4163.7983      0.74538194
       4164.6910      0.65387351
       4165.5837      0.71122625
       4166.4765      0.65963503
       4167.3692      0.69248083
       4168.2619      0.67699913
       4169.1546      0.60809424
       4170.0473      0.67356565
       4170.9401      0.65984009
       4171.8328      0.69140180
       4172.7255      0.70678935
       4173.6182      0.66439745
       4174.5109      0.68197325
       4175.4036      0.67558468
       4176.2964      0.72792370
       4177.1891      0.67633720
       4178.0818      0.68040625
       4178.9745      0.63544192
       4179.8672      0.68978666
       4180.7600      0.63301018
       4181.6527      0.64736350
       4182.5454      0.70632729
       4183.4381      0.65280851
       4184.3308      0.64138459
       4185.2235      0.62988739
       4186.1163      0.64940824
       4187.0090      0.62191310
       4187.9017      0.66329482
       4188.7944      0.73943742
       4189.6871      0.67935584
       4190.5799      0.71389397
       4191.4726      0.73187184
       4192.3653      0.72290959
       4193.2580      0.71913983
       4194.1507      0.68640144
       4195.0434      0.67550335
       4195.9362      0.74319435
       4196.8289      0.65088780
       4197.7216      0.70621335
       4198.6143      0.73272494
       4199.5070      0.70466947
       4200.3998      0.70021507
       4201.2925      0.74957209
       4202.1852      0.75220378
       4203.0779      0.71470755
       4203.9706      0.74170454
       4204.8633      0.70357226
       4205.7561      0.78623013
       4206.6488      0.70593082
       4207.5415      0.64913013
       4208.4342      0.63355939
       4209.3269      0.58482656
       4210.2197      0.64373521
       4211.1124      0.56838051
       4212.0051      0.63791724
       4212.8978      0.65523811
       4213.7905      0.63879045
       4214.6832      0.75514027
       4215.5760      0.73668590
       4216.4687      0.68393206
       4217.3614      0.70116409
       4218.2541      0.67159997
       4219.1468      0.67643222
       4220.0396      0.72323490
       4220.9323      0.62522307
       4221.8250      0.69116762
       4222.7177      0.69939802
       4223.6104      0.71427097
       4224.5031      0.70860308
       4225.3959      0.67801460
       4226.2886      0.73694918
       4227.1813      0.73573870
       4228.0740      0.76703479
       4228.9667      0.75221209
       4229.8595      0.68761978
       4230.7522      0.71101099
       4231.6449      0.74749151
       4232.5376      0.65916153
       4233.4303      0.68978631
       4234.3230      0.71806206
       4235.2158      0.69957409
       4236.1085      0.65298360
       4237.0012      0.71986310
       4237.8939      0.71952078
       4238.7866      0.76397979
       4239.6794      0.70578793
       4240.5721      0.67392632
       4241.4648      0.71669808
       4242.3575      0.70900404
       4243.2502      0.70774451
       4244.1429      0.73469364
       4245.0357      0.66552281
       4245.9284      0.69615181
       4246.8211      0.82792559
       4247.7138      0.77462488
       4248.6065      0.72697395
       4249.4993      0.75151141
       4250.3920      0.75427275
       4251.2847      0.68901756
       4252.1774      0.65366108
       4253.0701      0.66065516
       4253.9628      0.67727172
       4254.8556      0.61189592
       4255.7483      0.66375622
       4256.6410      0.64464719
       4257.5337      0.65446568
       4258.4264      0.71328793
       4259.3192      0.72333049
       4260.2119      0.74670624
       4261.1046      0.76674357
       4261.9973      0.73368421
       4262.8900      0.75865879
       4263.7827      0.73003960
       4264.6755      0.75346556
       4265.5682      0.68250463
       4266.4609      0.69431469
       4267.3536      0.68371539
       4268.2463      0.65083207
       4269.1391      0.66007443
       4270.0318      0.66591506
       4270.9245      0.63728630
       4271.8172      0.60576409
       4272.7099      0.62339906
       4273.6026      0.64872493
       4274.4954      0.67923422
       4275.3881      0.70597341
       4276.2808      0.63835633
       4277.1735      0.65321326
       4278.0662      0.69031289
       4278.9590      0.66337343
       4279.8517      0.68065559
       4280.7444      0.61960568
       4281.6371      0.61796467
       4282.5298      0.59105574
       4283.4225      0.54408571
       4284.3153      0.57805640
       4285.2080      0.55711039
       4286.1007      0.56342744
       4286.9934      0.61998771
       4287.8861      0.57077142
       4288.7789      0.64328906
       4289.6716      0.56310238
       4290.5643      0.53620971
       4291.4570      0.60977318
       4292.3497      0.62183364
       4293.2424      0.63117102
       4294.1352      0.67368755
       4295.0279      0.68835879
       4295.9206      0.69411029
       4296.8133      0.76057369
       4297.7060      0.79852556
       4298.5988      0.74645264
       4299.4915      0.77529597
       4300.3842      0.77202382
       4301.2769      0.69800467
       4302.1696      0.72801807
       4303.0623      0.70055915
       4303.9551      0.63887965
       4304.8478      0.70089555
       4305.7405      0.65657811
       4306.6332      0.65453964
       4307.5259      0.68829161
       4308.4187      0.65077344
       4309.3114      0.72138215
       4310.2041      0.72397543
       4311.0968      0.73781611
       4311.9895      0.73599781
       4312.8822      0.76234488
       4313.7750      0.74673122
       4314.6677      0.68509936
       4315.5604      0.65334136
       4316.4531      0.63629676
       4317.3458      0.61257083
       4318.2386      0.62674322
       4319.1313      0.65569344
       4320.0240      0.65800238
       4320.9167      0.63605987
       4321.8094      0.58751505
       4322.7021      0.59430231
       4323.5949      0.59325069
       4324.4876      0.61447758
       4325.3803      0.68935516
       4326.2730      0.70296133
       4327.1657      0.70189598
       4328.0585      0.70908622
       4328.9512      0.68049028
       4329.8439      0.71577727
       4330.7366      0.72777236
       4331.6293      0.69792747
       4332.5220      0.70342388
       4333.4148      0.69151152
       4334.3075      0.65343346
       4335.2002      0.69343537
       4336.0929      0.77714032
       4336.9856      0.77115991
       4337.8784      0.73289207
       4338.7711      0.68869809
       4339.6638      0.78093840
       4340.5565      0.82510704
       4341.4492      0.81411552
       4342.3419      0.77895494
       4343.2347      0.78941782
       4344.1274      0.74323489
       4345.0201      0.73844449
       4345.9128      0.66550874
       4346.8055      0.79846902
       4347.6982      0.76428126
       4348.5910      0.77998519
       4349.4837      0.76333741
       4350.3764      0.76733817
       4351.2691      0.70629360
       4352.1618      0.68604252
       4353.0546      0.70506831
       4353.9473      0.67534948
       4354.8400      0.71814534
       4355.7327      0.72873640
       4356.6254      0.67765625
       4357.5181      0.72938209
       4358.4109      0.68360237
       4359.3036      0.64299818
       4360.1963      0.67858863
       4361.0890      0.64783225
       4361.9817      0.64210524
       4362.8745      0.64633863
       4363.7672      0.66336254
       4364.6599      0.64391246
       4365.5526      0.72049105
       4366.4453      0.66650703
       4367.3380      0.70459581
       4368.2308      0.69762978
       4369.1235      0.73295171
       4370.0162      0.70716995
       4370.9089      0.74378407
       4371.8016      0.73726912
       4372.6944      0.69427503
       4373.5871      0.71323035
       4374.4798      0.66201719
       4375.3725      0.70276320
       4376.2652      0.78023151
       4377.1579      0.72822738
       4378.0507      0.68604406
       4378.9434      0.74969238
       4379.8361      0.72339811
       4380.7288      0.73383317
       4381.6215      0.73752047
       4382.5143      0.72213012
       4383.4070      0.70901960
       4384.2997      0.64014292
       4385.1924      0.72766841
       4386.0851      0.73964162
       4386.9778      0.76363958
       4387.8706      0.78187138
       4388.7633      0.72924982
       4389.6560      0.75945577
       4390.5487      0.78400363
       4391.4414      0.79214837
       4392.3342      0.71423573
       4393.2269      0.71725420
       4394.1196      0.76277126
       4395.0123      0.79278284
       4395.9050      0.72690511
       4396.7977      0.78542653
       4397.6905      0.76658333
       4398.5832      0.75062764
       4399.4759      0.74669236
       4400.3686      0.71165241
       4401.2613      0.77231209
       4402.1541      0.76324612
       4403.0468      0.77303559
       4403.9395      0.80100977
       4404.8322      0.71658135
       4405.7249      0.72757460
       4406.6176      0.78634583
       4407.5104      0.72264020
       4408.4031      0.79431097
       4409.2958      0.69501194
       4410.1885      0.71877576
       4411.0812      0.76328706
       4411.9740      0.73421550
       4412.8667      0.74853756
       4413.7594      0.74437459
       4414.6521      0.80458421
       4415.5448      0.78354437
       4416.4375      0.77272633
       4417.3303      0.70993290
       4418.2230      0.75598492
       4419.1157      0.69474372
       4420.0084      0.74410928
       4420.9011      0.74858549
       4421.7939      0.81625065
       4422.6866      0.75572302
       4423.5793      0.73512705
       4424.4720      0.81726271
       4425.3647      0.83552297
       4426.2574      0.78877567
       4427.1502      0.76054266
       4428.0429      0.80164515
       4428.9356      0.73502165
       4429.8283      0.72335629
       4430.7210      0.69327045
       4431.6138      0.62076920
       4432.5065      0.66037780
       4433.3992      0.75272369
       4434.2919      0.74487495
       4435.1846      0.71190049
       4436.0773      0.71384161
       4436.9701      0.76805576
       4437.8628      0.77472053
       4438.7555      0.78782741
       4439.6482      0.72610472
       4440.5409      0.74489477
       4441.4337      0.75703528
       4442.3264      0.73975869
       4443.2191      0.72279919
       4444.1118      0.73109746
       4445.0045      0.73891939
       4445.8972      0.79384463
       4446.7900      0.79727018
       4447.6827      0.74995831
       4448.5754      0.76396603
       4449.4681      0.87974287
       4450.3608      0.86871098
       4451.2536      0.83719680
       4452.1463      0.79787567
       4453.0390      0.74487169
       4453.9317      0.79362629
       4454.8244      0.81597563
       4455.7171      0.79080726
       4456.6099      0.76069958
       4457.5026      0.80704097
       4458.3953      0.82923124
       4459.2880      0.82420801
       4460.1807      0.80358268
       4461.0735      0.77332175
       4461.9662      0.80871740
       4462.8589      0.77353246
       4463.7516      0.81123244
       4464.6443      0.79331756
       4465.5370      0.73534102
       4466.4298      0.70203688
       4467.3225      0.76308436
       4468.2152      0.80636438
       4469.1079      0.81187971
       4470.0006      0.73939250
       4470.8934      0.83559933
       4471.7861      0.85117078
       4472.6788      0.85349073
       4473.5715      0.83083157
       4474.4642      0.80225500
       4475.3569      0.83238374
       4476.2497      0.85945946
       4477.1424      0.89058587
       4478.0351      0.83778135
       4478.9278      0.87391764
       5821.6970       2.0837838
       5822.6588       2.3208508
       5823.6206       2.5448768
       5824.5823       1.9271441
       5825.5441       1.7068749
       5826.5058       1.6159322
       5827.4676       1.5169651
       5828.4294       1.5951172
       5829.3911       1.4454704
       5830.3529       1.3682523
       5831.3146       1.4577945
       5832.2764       1.4438089
       5833.2382       1.4509346
       5834.1999       1.6491287
       5835.1617       1.5858958
       5836.1235       1.6146272
       5837.0852       1.4426969
       5838.0470       1.4634328
       5839.0087       1.4366408
       5839.9705       1.3878367
       5840.9323       1.2931319
       5841.8940       1.4804522
       5842.8558       1.4781893
       5843.8175       1.4778537
       5844.7793       1.4800477
       5845.7411       1.3938598
       5846.7028       1.4605665
       5847.6646       1.2426880
       5848.6263       1.4699183
       5849.5881       1.5215336
       5850.5499       1.4452161
       5851.5116       1.2842150
       5852.4734       1.3410924
       5853.4351       1.4078507
       5854.3969       1.3950402
       5855.3587       1.4767812
       5856.3204       1.3762773
       5857.2822       1.5639156
       5858.2439       1.5278461
       5859.2057       1.4190748
       5860.1675       1.4536538
       5861.1292       1.4246418
       5862.0910       1.3954557
       5863.0527       1.4836478
       5864.0145       1.5199620
       5864.9763       1.4370461
       5865.9380       1.4828640
       5866.8998       1.5153377
       5867.8615       1.3516517
       5868.8233       1.3020062
       5869.7851       1.4828076
       5870.7468       1.4036389
       5871.7086       1.4023424
       5872.6703       1.4596967
       5873.6321       1.4132921
       5874.5939       1.3038678
       5875.5556       1.4469649
       5876.5174       1.4135595
       5877.4791       1.2634939
       5878.4409       1.2556441
       5879.4027       1.1352764
       5880.3644       1.0772509
       5881.3262       1.2374820
       5882.2880       1.1901835
       5883.2497       1.2393784
       5884.2115       1.3201506
       5885.1732       1.3228205
       5886.1350       1.3693407
       5887.0968       1.3384319
       5888.0585       1.4254400
       5889.0203       1.3197109
       5889.9820       1.2956042
       5890.9438       1.4241866
       5891.9056       1.4788204
       5892.8673       1.4225485
       5893.8291       1.4175419
       5894.7908       1.5285436
       5895.7526       1.4761592
       5896.7144       1.4511558
       5897.6761       1.4498187
       5898.6379       1.4914425
       5899.5996       1.3848992
       5900.5614       1.4242598
       5901.5232       1.5460687
       5902.4849       1.3986239
       5903.4467       1.4083486
       5904.4084       1.4464734
       5905.3702       1.3906483
       5906.3320       1.4798215
       5907.2937       1.3184911
       5908.2555       1.4036627
       5909.2172       1.4187773
       5910.1790       1.3860318
       5911.1408       1.4793100
       5912.1025       1.4543672
       5913.0643       1.4156390
       5914.0260       1.4913237
       5914.9878       1.3718350
       5915.9496       1.4608762
       5916.9113       1.4716202
       5917.8731       1.4887380
       5918.8348       1.3983383
       5919.7966       1.4245755
       5920.7584       1.4611879
       5921.7201       1.4901767
       5922.6819       1.5391125
       5923.6436       1.3518041
       5924.6054       1.4816331
       5925.5672       1.3380727
       5926.5289       1.3259197
       5927.4907       1.4960450
       5928.4525       1.4657700
       5929.4142       1.4559008
       5930.3760       1.4059787
       5931.3377       1.5101819
       5932.2995       1.3867881
       5933.2613       1.4194409
       5934.2230       1.3406682
       5935.1848       1.3589510
       5936.1465       1.4076201
       5937.1083       1.4071367
       5938.0701       1.4334299
       5939.0318       1.3535905
       5939.9936       1.4647846
       5940.9553       1.4021128
       5941.9171       1.5240139
       5942.8789       1.4220806
       5943.8406       1.5027201
       5944.8024       1.4780729
       5945.7641       1.5529946
       5946.7259       1.5023720
       5947.6877       1.5797636
       5948.6494       1.4875613
       5949.6112       1.4086587
       5950.5729       1.5256184
       5951.5347       1.5103120
       5952.4965       1.5064787
       5953.4582       1.5098743
       5954.4200       1.4111672
       5955.3817       1.5224008
       5956.3435       1.5572338
       5957.3053       1.6880107
       5958.2670       1.7624144
       5959.2288       1.6210064
       5960.1905       1.6462068
       5961.1523       1.5958905
       5962.1141       1.4976767
       5963.0758       1.3514747
       5964.0376       1.3880298
       5964.9993       1.3298013
       5965.9611       1.4436346
       5966.9229       1.6714926
       5967.8846       1.8028627
       5968.8464       1.4296404
       5969.8081       1.6943386
       5970.7699       1.7048403
       5971.7317       1.7086986
       5972.6934       1.3973910
       5973.6552       1.6445727
       5974.6170       1.5282408
       5975.5787       1.5621211
       5976.5405       1.2526072
       5977.5022       1.4740741
       5978.4640       1.4460544
       5979.4258       1.6354630
       5980.3875       1.4024188
       5981.3493       1.4304710
       5982.3110       1.4391127
       5983.2728       1.5715011
       5984.2346       1.6132611
       5985.1963       1.4732382
       5986.1581       1.6106183
       5987.1198       1.5145513
       5988.0816       1.5340331
       5989.0434       1.5373416
       5990.0051       1.5319304
       5990.9669       1.5056717
       5991.9286       1.4842361
       5992.8904       1.4737233
       5993.8522       1.4633611
       5994.8139       1.4256407
       5995.7757       1.4508648
       5996.7374       1.6883988
       5997.6992       2.1068811
       5998.6610       1.7170850
       5999.6227       1.7241990
       6000.5845       1.8013500
       6001.5462       1.5891351
       6002.5080       1.3070933
       6003.4698       1.5109492
       6004.4315       1.3574905
       6005.3933       1.6228143
       6006.3550       1.5612206
       6007.3168       1.5394659
       6008.2786       1.5865601
       6009.2403       1.6319087
       6010.2021       1.4868437
       6011.1638       1.3278736
       6012.1256       1.4296923
       6013.0874       1.4093924
       6014.0491       1.6338321
       6015.0109       1.6189974
       6015.9726       1.6021714
       6016.9344       1.6156794
       6017.8962       1.5812986
       6018.8579       1.5772601
       6019.8197       1.5965539
       6020.7815       1.6586511
       6021.7432       1.7265775
       6022.7050       1.6986144
       6023.6667       1.8546507
       6024.6285       1.9012545
       6025.5903       1.7010117
       6026.5520       1.5784195
       6027.5138       1.6153832
       6028.4755       1.5135703
       6029.4373       1.5305908
       6030.3991       1.5128749
       6031.3608       1.7444095
       6032.3226       1.8390305
       6033.2843       1.5938026
       6034.2461       1.6659438
       6035.2079       1.7518846
       6036.1696       1.6218938
       6037.1314       1.5750368
       6038.0931       1.6096810
       6039.0549       1.6158381
       6040.0167       1.5712397
       6040.9784       1.6452564
       6041.9402       1.5737234
       6042.9019       1.6892729
       6043.8637       1.8220205
       6044.8255       1.8032418
       6045.7872       1.8912828
       6046.7490       1.7077787
       6047.7107       1.6236573
       6048.6725       1.6222811
       6049.6343       1.4697585
       6050.5960       1.5848015
       6051.5578       1.7381626
       6052.5195       1.8116973
       6053.4813       1.7010793
       6054.4431       1.8306692
       6055.4048       1.8414222
       6056.3666       1.9234009
       6057.3283       1.7431569
       6058.2901       1.6266316
       6059.2519       1.7531872
       6060.2136       1.6810240
       6061.1754       1.6292298
       6062.1372       1.7244445
       6063.0989       1.7504890
       6064.0607       1.7598054
       6065.0224       1.8061722
       6065.9842       1.7940139
       6066.9460       1.8061866
       6067.9077       1.6654372
       6068.8695       1.7761013
       6069.8312       1.7460609
       6070.7930       1.7273616
       6071.7548       1.6516862
       6072.7165       1.5013218
       6073.6783       1.6197391
       6074.6400       1.7764757
       6075.6018       1.7465075
       6076.5636       1.7077966
       6077.5253       1.6720123
       6078.4871       1.8337205
       6079.4488       1.6563027
       6080.4106       1.8688200
       6081.3724       1.7433103
       6082.3341       1.7061533
       6083.2959       1.6241167
       6084.2576       1.7947940
       6085.2194       1.8137991
       6086.1812       1.7901836
       6087.1429       1.7976280
       6088.1047       1.8068136
       6089.0664       1.7588805
       6090.0282       1.7867526
       6090.9900       1.8272117
       6091.9517       1.7056314
       6092.9135       1.7864002
       6093.8752       1.8251834
       6094.8370       1.6924470
       6095.7988       1.6436620
       6096.7605       1.7916555
       6097.7223       1.7082506
       6098.6840       1.6401254
       6099.6458       1.6370878
       6100.6076       1.7440592
       6101.5693       1.5830068
       6102.5311       1.7253393
       6103.4928       1.9300362
       6104.4546       1.7488759
       6105.4164       1.8560122
       6106.3781       1.8597600
       6107.3399       1.9434861
       6108.3017       1.7526134
       6109.2634       1.8761246
       6110.2252       1.8152179
       6111.1869       1.8626237
       6112.1487       1.7025509
       6113.1105       1.8014448
       6114.0722       1.7789648
       6115.0340       1.7685934
       6115.9957       1.5951463
       6116.9575       1.7738281
       6117.9193       1.7680763
       6118.8810       1.7031760
       6119.8428       1.6446194
       6120.8045       1.8116968
       6121.7663       1.8682482
       6122.7281       1.8204330
       6123.6898       1.7263240
       6124.6516       1.7792621
       6125.6133       1.9582109
       6126.5751       1.7994265
       6127.5369       1.7191413
       6128.4986       1.6128093
       6129.4604       1.6255259
       6130.4221       1.6887236
       6131.3839       1.7139100
       6132.3457       1.6875027
       6133.3074       1.6910526
       6134.2692       1.7243752
       6135.2309       1.7900134
       6136.1927       1.9008910
       6137.1545       1.8425656
       6138.1162       1.9160205
       6139.0780       1.8110674
       6140.0397       1.8334807
       6141.0015       1.7523942
       6141.9633       1.8527882
       6142.9250       1.8348862
       6143.8868       1.8607132
       6144.8485       1.6864072
       6145.8103       1.7531429
       6146.7721       1.8556249
       6147.7338       1.8491697
       6148.6956       1.8352561
       6149.6573       1.8800570
       6150.6191       1.7169918
       6151.5809       1.6471373
       6152.5426       1.7167812
       6153.5044       1.7045701
       6154.4662       1.7689359
       6155.4279       1.6511425
       6156.3897       1.6566555
       6157.3514       1.7168074
       6158.3132       1.5496405
       6159.2750       1.5152133
       6160.2367       1.3763038
       6161.1985       1.6277316
       6162.1602       1.6970841
       6163.1220       1.8609480
       6164.0838       1.9385463
       6165.0455       1.8886381
       6166.0073       1.8509119
       6166.9690       1.7831126
       6167.9308       1.8594028
       6168.8926       1.9136419
       6169.8543       1.9253391
       6170.8161       1.9128266
       6171.7778       2.2943520
       6172.7396       2.4297515
       6173.7014       2.1988944
       6174.6631       2.0403437
       6175.6249       1.9868204
       6176.5866       1.8400633
       6177.5484       1.7817206
       6178.5102       1.7768357
       6179.4719       1.8604728
       6180.4337       1.9204012
       6181.3954       1.9070337
       6182.3572       1.9313943
       6183.3190       1.9145336
       6184.2807       1.7667039
       6185.2425       1.7186933
       6186.2042       1.7503138
       6187.1660       1.7028489
       6188.1278       1.7927618
       6189.0895       1.7578862
       6190.0513       1.7404893
       6191.0130       1.7617317
       6191.9748       1.8163663
       6192.9366       1.8127149
       6193.8983       1.8708043
       6194.8601       1.8547944
       6195.8218       1.8707168
       6196.7836       1.9304660
       6197.7454       1.8170540
       6198.7071       1.7466116
       6199.6689       1.8542700
       6200.6307       1.9486293
       6201.5924       1.7684381
       6202.5542       1.9205893
       6203.5159       2.0000311
       6204.4777       2.0076511
       6205.4395       1.8978174
       6206.4012       1.9441712
       6207.3630       1.8789186
       6208.3247       1.9801184
       6209.2865       1.7263882
       6210.2483       1.8153912
       6211.2100       1.9612644
       6212.1718       1.6909370
       6213.1335       1.8367120
       6214.0953       1.8779266
       6215.0571       1.8264291
       6216.0188       1.8159708
       6216.9806       1.8968734
       6217.9423       1.8165943
       6218.9041       1.8763085
       6219.8659       1.6886831
       6220.8276       1.8344710
       6221.7894       1.9667534
       6222.7511       1.8789225
       6223.7129       1.9083706
       6224.6747       1.8019863
       6225.6364       1.7289167
       6226.5982       1.8233663
       6227.5599       1.8568303
       6228.5217       1.8012936
       6229.4835       1.7682072
       6230.4452       1.7533909
       6231.4070       1.9330318
       6232.3687       1.8525198
       6233.3305       1.7814690
       6234.2923       1.7634718
       6235.2540       1.8344864
       6236.2158       1.7420274
       6237.1775       1.8244034
       6238.1393       1.7548919
       6239.1011       1.6772933
       6240.0628       1.6837522
       6241.0246       1.6634376
       6241.9863       1.7181273
       6242.9481       1.8924466
       6243.9099       1.8486748
       6244.8716       1.8535896
       6245.8334       1.9432910
       6246.7952       1.9427299
       6247.7569       1.7675929
       6248.7187       1.8175765
       6249.6804       1.8811689
       6250.6422       1.8798175
       6251.6040       1.6823051
       6252.5657       1.7926544
       6253.5275       1.8236363
       6254.4892       1.8299708
       6255.4510       1.6981148
       6256.4128       1.7622853
       6257.3745       1.8065298
       6258.3363       1.7176829
       6259.2980       1.8464552
       6260.2598       1.9166510
       6261.2216             NaN
       6262.1833             NaN
       6263.1451             NaN
       6264.1068             NaN
       6265.0686             NaN
       6266.0304             NaN
       6266.9921             NaN
       6267.9539             NaN
       6268.9156             NaN
       6269.8774             NaN
       6270.8392             NaN
       6271.8009             NaN
       6272.7627             NaN
       6273.7244             NaN
       6274.6862             NaN
       6275.6480             NaN
       6276.6097             NaN
       6277.5715             NaN
       6278.5332             NaN
       6279.4950             NaN
       6280.4568             NaN
       6281.4185             NaN
       6282.3803             NaN
       6283.3420             NaN
       6284.3038             NaN
       6285.2656             NaN
       6286.2273             NaN
       6287.1891             NaN
       6288.1509             NaN
       6289.1126             NaN
       6290.0744             NaN
       6291.0361             NaN
       6291.9979             NaN
       6292.9597             NaN
       6293.9214             NaN
       6294.8832             NaN
       6295.8449             NaN
       6296.8067             NaN
       6297.7685             NaN
       6298.7302             NaN
       6299.6920             NaN
       6300.6537             NaN
       6301.6155             NaN
       6302.5773             NaN
       6303.5390             NaN
       6304.5008             NaN
       6305.4625             NaN
       6306.4243             NaN
       6307.3861             NaN
       6308.3478             NaN
       6309.3096             NaN
       6310.2713             NaN
       6311.2331             NaN
       6312.1949             NaN
       6313.1566             NaN
       6314.1184             NaN
       6315.0801             NaN
       6316.0419             NaN
       6317.0037             NaN
       6317.9654             NaN
       6318.9272             NaN
       6319.8889             NaN
       6320.8507             NaN
       6321.8125             NaN
       6322.7742             NaN
       6323.7360             NaN
       6324.6977             NaN
       6325.6595             NaN
       6326.6213             NaN
       6327.5830             NaN
       6328.5448             NaN
       6329.5065             NaN
       6330.4683             NaN
       6331.4301             NaN
       6332.3918             NaN
       6333.3536             NaN
       6334.3154             NaN
       6335.2771             NaN
       6336.2389             NaN
       6337.2006             NaN
       6338.1624             NaN
       6339.1242             NaN
       6340.0859             NaN
       6341.0477             NaN
       6342.0094             NaN
       6342.9712             NaN
       6343.9330             NaN
       6344.8947             NaN
       6345.8565             NaN
       6346.8182             NaN
       6347.7800             NaN
       6348.7418       2.0820339
       6349.7035       2.0150780
       6350.6653       2.0503804
       6351.6270       2.0227735
       6352.5888       2.0622254
       6353.5506       2.1104793
       6354.5123       2.0040048
       6355.4741       2.0260325
       6356.4358       2.0391060
       6357.3976       1.9718409
       6358.3594       1.9549597
       6359.3211       1.9855360
       6360.2829       1.9114889
       6361.2446       1.9317733
       6362.2064       2.2143514
       6363.1682       2.3387758
       6364.1299       2.1876094
       6365.0917       2.5921910
       6366.0534       2.8456643
       6367.0152       2.6414489
       6367.9770       2.8022645
       6368.9387       2.7040110
       6369.9005       2.5724382
       6370.8622       2.3528112
       6371.8240       2.4116565
       6372.7858       2.3055428
       6373.7475       2.0809454
       6374.7093       2.4995403
       6375.6710       2.0067619
       6376.6328       1.9368522
       6377.5946       1.9329395
       6378.5563       1.9649134
       6379.5181       1.8659408
       6380.4799       1.7836177
       6381.4416       2.1020871
       6382.4034       2.1330890
       6383.3651       1.9582489
       6384.3269       2.0135847
       6385.2887       2.0121244
       6386.2504       1.8616383
       6387.2122       2.0236281
       6388.1739       1.9823474
       6389.1357       1.9335305
       6390.0975       1.9391535
       6391.0592       1.8636905
       6392.0210       1.7840818
       6392.9827       1.8097364
       6393.9445       2.0404661
       6394.9063       2.0127039
       6395.8680       2.0886090
       6396.8298       2.2206598
       6397.7915       2.3764216
       6398.7533       2.3307497
       6399.7151       1.9189496
       6400.6768       1.8940083
       6401.6386       1.8332142
       6402.6003       2.1436914
       6403.5621       1.9069218
       6404.5239       2.1563304
       6405.4856       2.1707895
       6406.4474       2.1378441
       6407.4091       2.0408591
       6408.3709       2.1005773
       6409.3327       1.9421715
       6410.2944       2.0577103
       6411.2562       1.9091757
       6412.2179       1.9078065
       6413.1797       1.9694703
       6414.1415       2.0898261
       6415.1032       1.9744112
       6416.0650       1.9567055
       6417.0267       1.8824496
       6417.9885       1.9666632
       6418.9503       1.9752322
       6419.9120       2.1908613
       6420.8738       1.9880741
       6421.8355       1.9109328
       6422.7973       2.0993054
       6423.7591       2.1231068
       6424.7208       2.0071710
       6425.6826       1.9381282
       6426.6444       1.8373136
       6427.6061       1.8650125
       6428.5679       1.8352851
       6429.5296       1.6790879
       6430.4914       1.5347937
       6431.4532       1.7158850
       6432.4149       1.7620370
       6433.3767       1.7813327
       6434.3384       1.9828317
       6435.3002       1.8226012
       6436.2620       1.5972636
       6437.2237       1.7904014
       6438.1855       1.8170168
       6439.1472       1.9596189
       6440.1090       1.9809582
       6441.0708       1.9724181
       6442.0325       1.9890459
       6442.9943       2.1108384
       6443.9560       2.1767838
       6444.9178       1.9697933
       6445.8796       1.8802561
       6446.8413       1.9958673
       6447.8031       1.8078919
       6448.7648       1.9400516
       6449.7266       1.9017758
       6450.6884       1.8711566
       6451.6501       1.8857934
       6452.6119       2.0438563
       6453.5736       2.0166186
       6454.5354       2.1264700
       6455.4972       2.1100994
       6456.4589       2.2089176
       6457.4207       2.3048937
       6458.3824       2.5075858
       6459.3442       1.7988091
       6460.3060       1.9604714
       6461.2677       1.9226830
       6462.2295       2.0000815
       6463.1912       1.9058419
       6464.1530       1.9770858
       6465.1148       1.8762444
       6466.0765       1.9781524
       6467.0383       1.9459113
       6468.0000       1.8330734
       6468.9618       1.9462115
       6469.9236       1.9643575
       6470.8853       1.8141983
       6471.8471       1.9412220
       6472.8089       2.0980426
       6473.7706       2.1719383
       6474.7324       1.9474629
       6475.6941       1.8282924
       6476.6559       1.9830916
       6477.6177       1.8677662
       6478.5794       2.0448016
       6479.5412       1.9762350
       6480.5029       2.0583699
       6481.4647       2.1896252
       6482.4265       2.1128789
       6483.3882       2.1278186
       6484.3500       2.2308218
       6485.3117       1.7512371
       6486.2735       1.7270119
       6487.2353       2.0435833
       6488.1970       1.8437431
       6489.1588       1.9550817
       6490.1205       1.8085817
       6491.0823       1.8804182
       6492.0441       1.8554742
       6493.0058       1.8675982
       6493.9676       2.0130803
       6494.9293       1.9167266
       6495.8911       1.7181560
       6496.8529       1.8373826
       6497.8146       2.0839874
       6498.7764       1.8899985
       6499.7381       1.8999533
       6500.6999       1.8369392
       6501.6617       1.9626900
       6502.6234       2.0772005
       6503.5852       1.9351603
       6504.5469       1.9656902
       6505.5087       2.1046389
       6506.4705       2.1469987
       6507.4322       2.0400485
       6508.3940       2.0793406
       6509.3557       1.9230091
       6510.3175       2.0903893
       6511.2793       2.1471328
       6512.2410       2.0102411
       6513.2028       2.1369300
       6514.1646       2.1046809
       6515.1263       1.9495434
       6516.0881       1.8651939
       6517.0498       1.9482542
       6518.0116       1.9486924
       6518.9734       2.0741267
       6519.9351       1.9842811
       6520.8969       2.0666164
       6521.8586       2.0599624
       6522.8204       2.0382126
       6523.7822       2.0109214
       6524.7439       1.9890104
       6525.7057       1.9439790
       6526.6674       1.8567317
       6527.6292       1.5931563
       6528.5910       1.1520293
       6529.5527       1.2814503
       6530.5145       1.9714745
       6531.4762       2.1646615
       6532.4380       2.3146131
       6533.3998       2.1947662
       6534.3615       2.2308847
       6535.3233       1.7848987
       6536.2850       2.1714399
       6537.2468       2.0901007
       6538.2086       2.0225789
       6539.1703       2.2655097
       6540.1321       2.1324096
       6541.0938       1.9833005
       6542.0556       2.1091630
       6543.0174       2.2378860
       6543.9791       2.4490573
       6544.9409       2.2458298
       6545.9026       2.5177257
       6546.8644       2.5180216
       6547.8262       2.2451826
       6548.7879       2.2395550
       6549.7497       2.0555276
       6550.7114       2.0252936
       6551.6732       1.9151577
       6552.6350       1.8903944
       6553.5967       1.9775989
       6554.5585       1.9624250
       6555.5202       2.0909727
       6556.4820       2.0666792
       6557.4438       2.1528463
       6558.4055       2.4410092
       6559.3673       2.9206077
       6560.3291       3.6275992
       6561.2908       3.9266446
       6562.2526       3.7192096
       6563.2143       3.2460874
       6564.1761       2.9303306
       6565.1379       2.2947127
       6566.0996       2.0794430
       6567.0614       2.0009250
       6568.0231       1.9278073
       6568.9849       1.8427684
       6569.9467       1.7523510
       6570.9084       1.7795358
       6571.8702       1.9493665
       6572.8319       1.9829224
       6573.7937       2.0884965
       6574.7555       2.2116097
       6575.7172       2.1080775
       6576.6790       2.3478892
       6577.6407       2.3190755
       6578.6025       2.6460772
       6579.5643       2.6376260
       6580.5260       2.8646747
       6581.4878       3.1149302
       6582.4495       3.0758850
       6583.4113       2.7801671
       6584.3731       2.5053151
       6585.3348       2.4721104
       6586.2966       2.2827304
       6587.2583       2.0848006
       6588.2201       2.0724738
       6589.1819       2.0493969
       6590.1436       1.9144108
       6591.1054       1.9182159
       6592.0671       1.9238880
       6593.0289       1.9309658
       6593.9907       1.9336898
       6594.9524       2.1443674
       6595.9142       2.4431942
       6596.8759       2.1337403
       6597.8377       2.1545516
       6598.7995       2.1651169
       6599.7612       2.0050797
       6600.7230       1.6941586
       6601.6847       1.8662929
       6602.6465       1.9527327
       6603.6083       2.0742043
       6604.5700       2.0546955
       6605.5318       2.0561570
       6606.4936       2.0004819
       6607.4553       1.8782045
       6608.4171       1.8432613
       6609.3788       2.0105892
       6610.3406       1.9898694
       6611.3024       1.8604268
       6612.2641       1.9848901
       6613.2259       2.1684756
       6614.1876       2.0089293
       6615.1494       1.9372992
       6616.1112       2.0871132
       6617.0729       2.0224264
       6618.0347       2.0350006
       6618.9964       1.9056112
       6619.9582       1.8411376
       6620.9200       1.9039692
       6621.8817       1.9463795
       6622.8435       2.0795280
       6623.8052       2.0021412
       6624.7670       1.9277616
       6625.7288       2.1598668
       6626.6905       2.1446647
       6627.6523       1.7930755
       6628.6140       1.8609713
       6629.5758       1.9658250
       6630.5376       1.9613565
       6631.4993       2.0210546
       6632.4611       2.0389696
       6633.4228       1.9733385
       6634.3846       2.0344146
       6635.3464       1.9325409
       6636.3081       1.9482182
       6637.2699       2.0507815
       6638.2316       2.0656676
       6639.1934       1.9418594
       6640.1552       1.8827048
       6641.1169       1.8227822
       6642.0787       1.8924499
       6643.0404       1.9483414
       6644.0022       1.8847794
       6644.9640       1.8130673
       6645.9257       1.8313013
       6646.8875       2.0451554
       6647.8492       1.9342639
       6648.8110       1.7787765
       6649.7728       1.7635443
       6650.7345       1.8118471
       6651.6963       1.8562973
       6652.6581       1.9085395
       6653.6198       1.7039910
       6654.5816       1.6571422
       6655.5433       1.6274095
       6656.5051       1.8423344
       6657.4669       2.1077852
       6658.4286       1.9000280
       6659.3904       1.8854691
       6660.3521       1.9544071
       6661.3139       1.9966285
       6662.2757       2.0105169
       6663.2374       2.0511500
       6664.1992       1.8903662
       6665.1609       1.9263564
       6666.1227       1.9060974
       6667.0845       1.9272345
       6668.0462       1.8817290
       6669.0080       1.8725776
       6669.9697       1.9835293
       6670.9315       1.9632811
       6671.8933       2.0270658
       6672.8550       1.9069989
       6673.8168       1.9409824
       6674.7785       2.0300225
       6675.7403       1.9441282
       6676.7021       1.9616213
       6677.6638       1.9163357
       6678.6256       1.8514710
       6679.5873       1.9970796
       6680.5491       1.9573681
       6681.5109       2.0226453
       6682.4726       1.9538908
       6683.4344       1.9946400
       6684.3961       2.0302861
       6685.3579       1.9888871
       6686.3197       2.0475766
       6687.2814       2.0686099
       6688.2432       1.8980147
       6689.2049       1.9648586
       6690.1667       2.0315631
       6691.1285       2.0232529
       6692.0902       2.0331703
       6693.0520       2.1228595
       6694.0137       1.9758858
       6694.9755       2.0439256
       6695.9373       1.9920692
       6696.8990       2.0695751
       6697.8608       1.9726595
       6698.8226       2.0260085
       6699.7843       2.0992463
       6700.7461       1.9524077
       6701.7078       1.9755911
       6702.6696       2.0522489
       6703.6314       2.0287888
       6704.5931       1.9808274
       6705.5549       1.9901819
       6706.5166       2.0097081
       6707.4784       2.0638902
       6708.4402       2.0044824
       6709.4019       1.9889119
       6710.3637       1.9471469
       6711.3254       2.0311116
       6712.2872       2.0449682
       6713.2490       2.0307175
       6714.2107       2.2511077
       6715.1725       2.2157138
       6716.1342       2.2324373
       6717.0960       2.1647804
       6718.0578       2.0711732
       6719.0195       1.9908446
       6719.9813       1.9580277
       6720.9430       1.9778865
       6721.9048       1.9204575
       6722.8666       1.9265999
       6723.8283       1.9091403
       6724.7901       2.0407105
       6725.7518       2.1923906
       6726.7136       2.0628744
       6727.6754       2.1386271
       6728.6371       2.1623603
       6729.5989       2.2765159
       6730.5606       2.1460336
       6731.5224       2.1325863
       6732.4842       2.0524522
       6733.4459       1.9021503
       6734.4077       1.9449710
       6735.3694       2.0745383
       6736.3312       1.9055824
       6737.2930       1.8446509
       6738.2547       1.8717133
       6739.2165       1.9587235
       6740.1783       1.8421195
       6741.1400       1.8365628
       6742.1018       1.8639841
       6743.0635       1.8893121
       6744.0253       1.9844607
       6744.9871       1.8851593
       6745.9488       1.7968643
       6746.9106       1.8107591
       6747.8723       1.8094594
       6748.8341       1.8980915
       6749.7959       1.9595343
       6750.7576       1.7801790
       6751.7194       1.8198804
       6752.6811       1.9668197
       6753.6429       1.9739634
       6754.6047       1.8634347
       6755.5664       1.8919338
       6756.5282       1.9730823
       6757.4899       1.9320838
       6758.4517       1.9294236
       6759.4135       1.9862535
       6760.3752       1.9300864
       6761.3370       1.8920965
       6762.2987       1.9107565
       6763.2605       1.9562942
       6764.2223       2.0035593
       6765.1840       1.9744035
       6766.1458       2.0384320
       6767.1075       2.0555688
       6768.0693       2.1213157
       6769.0311       2.0751438
       6769.9928       2.0324274
       6770.9546       2.0465107
       6771.9163       2.0721536
       6772.8781       2.0293271
       6773.8399       2.0854162
       6774.8016       2.0777340
       6775.7634       2.0155373
       6776.7251       2.0694951
       6777.6869       2.0886561
       6778.6487       2.0045115
       6779.6104       1.9441130
       6780.5722       2.0269870
       6781.5339       2.0774122
       6782.4957       2.0597942
       6783.4575       1.9228787
       6784.4192       1.8966925
       6785.3810       1.9931689
       6786.3428       1.9500399
       6787.3045       1.9048500
       6788.2663       1.9046361
       6789.2280       1.8273088
       6790.1898       1.8681508
       6791.1516       1.8025692
       6792.1133       1.9459299
       6793.0751       1.8773433
       6794.0368       1.8026733
       6794.9986       1.8993927
       6795.9604       1.9272069
       6796.9221       1.9270588
       6797.8839       2.0244674
       6798.8456       2.0868674
       6799.8074       2.0464475
       6800.7692       1.9425421
       6801.7309       2.0389762
       6802.6927       2.1539889
       6803.6544       2.0251109
       6804.6162       2.0722416
       6805.5780       1.9262560
       6806.5397       1.9618320
       6807.5015       2.0801612
       6808.4632       2.0975642
       6809.4250       2.0406471
       6810.3868       1.9731190
       6811.3485       1.9167937
       6812.3103       2.0234208
       6813.2720       2.0000340
       6814.2338       2.1599812
       6815.1956       2.0655685
       6816.1573       1.9120904
       6817.1191       1.9282092
       6818.0808       2.0479875
       6819.0426       2.0891348
       6820.0044       2.1485235
       6820.9661       2.0362434
       6821.9279       2.0152389
       6822.8896       2.0205503
       6823.8514       2.0431503
       6824.8132       1.8831973
       6825.7749       2.0310158
       6826.7367       2.0341067
       6827.6984       2.1183034
       6828.6602       2.1827392
       6829.6220       2.2918022
       6830.5837       2.2561606
       6831.5455       2.1519887
       6832.5073       2.0794681
       6833.4690       1.9650712
       6834.4308       1.9675735
       6835.3925       1.7539521
       6836.3543       1.6713101
       6837.3161       1.9510096
       6838.2778       1.9064742
       6839.2396       1.9088687
       6840.2013       2.0439454
       6841.1631       1.8159592
       6842.1249       1.9658322
       6843.0866       2.1816550
       6844.0484       1.9003174
       6845.0101       1.8714463
       6845.9719       2.0589895
       6846.9337       2.0222230
       6847.8954       2.0833635
       6848.8572       2.0993755
       6849.8189       2.1427839
       6850.7807       2.1130868
       6851.7425       1.8417953
       6852.7042       1.7505629
       6853.6660       1.8656040
       6854.6277       1.8286007
       6855.5895       2.0622041
       6856.5513       1.9298219
       6857.5130       1.9654500
       6858.4748       1.9662825
       6859.4365       2.0179058
       6860.3983       2.0576638
       6861.3601       2.0235634
       6862.3218       2.0044991
       6863.2836       1.9488851
       6864.2453       2.0468218
       6865.2071       2.0588225
       6866.1689       1.9883302
       6867.1306       1.9987946
       6868.0924       2.0257527
       6869.0541       2.0506905
       6870.0159       1.9655972
       6870.9777       2.0163375
       6871.9394       2.0444191
       6872.9012       2.0313161
       6873.8629       2.0434532
       6874.8247       2.0728212
       6875.7865       1.9351345
       6876.7482       1.9948593
       6877.7100       2.0122000
       6878.6718       2.0188668
       6879.6335       1.9860508
       6880.5953       2.0057257
       6881.5570       1.9027969
       6882.5188       1.6767036
       6883.4806       1.9290279
       6884.4423       2.4774997
       6885.4041       2.3788108
       6886.3658       2.3026164
       6887.3276       3.6333775
       6888.2894       3.7993222
       6889.2511       3.2365937
       6890.2129       2.4971823
       6891.1746       2.2413170
       6892.1364       2.0757895
       6893.0982       2.2027316
       6894.0599       2.1631118
       6895.0217       2.4065679
       6895.9834       2.1158051
       6896.9452       2.0243414
       6897.9070       2.1079339
       6898.8687       2.1883558
       6899.8305       2.1492388
       6900.7922       2.0646274
       6901.7540       1.9907213
       6902.7158       1.9376056
       6903.6775       1.9597812
       6904.6393       1.9920175
       6905.6010       2.2250689
       6906.5628       2.2583098
       6907.5246       2.2130849
       6908.4863       2.0734075
       6909.4481       2.1114422
       6910.4098       2.0715435
       6911.3716       2.0175689
       6912.3334       1.9778837
       6913.2951       1.9821228
       6914.2569       2.1501464
       6915.2186       2.2055828
       6916.1804       2.0381413
       6917.1422       2.0066029
       6918.1039       2.2679410
       6919.0657       2.2944699
       6920.0275       2.1179017
       6920.9892       2.1077475
       6921.9510       2.1359246
       6922.9127       2.0961680
       6923.8745       2.1617529
       6924.8363       2.1996887
       6925.7980       2.0071174
       6926.7598       1.9501520
       6927.7215       2.1769086
       6928.6833       2.1993994
       6929.6451       2.2599392
       6930.6068       2.3601575
       6931.5686       2.0045219
       6932.5303       2.1327354
       6933.4921       1.9793765
       6934.4539       2.0179173
       6935.4156       1.9007076
       6936.3774       1.9825730
       6937.3391       2.1473215
       6938.3009       2.1957850
       6939.2627       2.0329388
       6940.2244       1.8599556
       6941.1862       2.1289012
       6942.1479       1.9687191
       6943.1097       2.0471079
       6944.0715       2.0697925
       6945.0332       2.0551201
       6945.9950       2.1562049
       6946.9567       2.1316735
       6947.9185       1.8324620
       6948.8803       1.8699690
       6949.8420       1.8986096
       6950.8038       1.9781393
       6951.7655       1.8129120
       6952.7273       1.5429589
       6953.6891       1.5029134
       6954.6508       1.8896842
       6955.6126       2.1964131
       6956.5743       2.1126826
       6957.5361       2.1534584
       6958.4979       2.4358981
       6959.4596       2.2540374
       6960.4214       1.8021967
       6961.3831       1.9974870
       6962.3449       2.2123971
       6963.3067       2.1240169
       6964.2684       2.0650147
       6965.2302       1.9252757
       6966.1920       2.0319168
       6967.1537       2.0198976
       6968.1155       2.0883122
       6969.0772       2.1122462
       6970.0390       2.0250427
       6971.0008       1.8912381
       6971.9625       2.1094756
       6972.9243       2.3573364
       6973.8860       2.2425591
       6974.8478       2.1965173
       6975.8096       2.3093634
       6976.7713       2.1259460
       6977.7331       2.1383432
       6978.6948       2.0444191
       6979.6566       2.0292379
       6980.6184       1.9496614
       6981.5801       1.6827374
       6982.5419       1.8187243
       6983.5036       1.4784016
       6984.4654       1.1611476
       6985.4272       1.6195761
       6986.3889       2.1334287
       6987.3507       2.2229371
       6988.3124       2.1645767
       6989.2742       1.9831835
       6990.2360       2.1481369
       6991.1977       2.0917525
       6992.1595       2.1099194
       6993.1212       2.1575738
       6994.0830       2.0853267
       6995.0448       2.1141858
       6996.0065       2.1052500
       6996.9683       2.0297956
       6997.9300       2.0533245
       6998.8918       2.0223392
       6999.8536       2.0491821
       7000.8153       2.0892413
       7001.7771       2.0207263
       7002.7388       2.1031083
       7003.7006       2.0836351
       7004.6624       2.1376418
       7005.6241       2.2601037
       7006.5859       2.0046712
       7007.5476       2.2009104
       7008.5094       2.4511927
       7009.4712       2.2901142
       7010.4329       2.0842147
       7011.3947       2.0522550
       7012.3565       2.0487230
       7013.3182       2.2099680
       7014.2800       2.0529018
       7015.2417       2.1476743
       7016.2035       2.2160468
       7017.1653       1.9786551
       7018.1270       2.0034987
       7019.0888       2.1442355
       7020.0505       1.9843341
       7021.0123       2.0546830
       7021.9741       2.1599648
       7022.9358       2.0817563
       7023.8976       2.0063453
       7024.8593       2.1268303
       7025.8211       2.1388308
       7026.7829       2.1956400
       7027.7446       2.1970625
       7028.7064       2.1356433
       7029.6681       2.0299651
       7030.6299       2.0667790
       7031.5917       2.1424472
       7032.5534       2.1834047
       7033.5152       2.1888090
       7034.4769       2.1829305
       7035.4387       2.2146286
       7036.4005       2.2143884
       7037.3622       2.1632434
       7038.3240       2.1750856
       7039.2857       2.1019635
       7040.2475       2.1167204
       7041.2093       2.2125308
       7042.1710       2.1791574
       7043.1328       2.1380310
       7044.0945       2.2190136
       7045.0563       2.2381502
       7046.0181       2.1805271
       7046.9798       2.1289711
       7047.9416       2.0735048
       7048.9033       2.0370292
       7049.8651       2.1834806
       7050.8269       2.2415455
       7051.7886       2.0989197
       7052.7504       2.0970655
       7053.7121       2.1100252
       7054.6739       2.1929673
       7055.6357       1.9658413
       7056.5974       1.9960848
       7057.5592       1.9915655
       7058.5210       2.0273227
       7059.4827       2.0975929
       7060.4445       1.9930773
       7061.4062       2.0269215
       7062.3680       1.9963873
       7063.3298       1.8524312
       7064.2915       1.9299323
       7065.2533       1.8596630
       7066.2150       1.9583638
       7067.1768       2.0119600
       7068.1386       2.0796956
       7069.1003       2.0924418
       7070.0621       2.0879255
       7071.0238       2.0523712
       7071.9856       2.0340748
       7072.9474       2.0756912
       7073.9091       2.0121134
       7074.8709       2.0963626
       7075.8326       2.2195284
       7076.7944       2.0956734
       7077.7562       2.1018560
       7078.7179       2.0285909
       7079.6797       1.9740230
       7080.6414       2.0503077
       7081.6032       2.0380802
       7082.5650       1.9246626
       7083.5267       2.0035588
       7084.4885       2.1440585
       7085.4502       2.0593844
       7086.4120       2.0216275
       7087.3738       2.0077048
       7088.3355       1.9720470
       7089.2973       2.0869391
       7090.2590       1.9142342
       7091.2208       1.9720793
       7092.1826       2.0817283
       7093.1443       2.0394737
       7094.1061       2.0730363
       7095.0678       2.2568569
       7096.0296       2.0067512
       7096.9914       1.9814871
       7097.9531       1.9338959
       7098.9149       2.0101459
       7099.8766       2.0734699
       7100.8384       1.9623671
       7101.8002       2.0206926
       7102.7619       2.1831567
       7103.7237       1.9845434
       7104.6855       1.8197582
       7105.6472       1.9563367
       7106.6090       1.9994935
       7107.5707       1.9531141
       7108.5325       1.9446621
       7109.4943       2.1237157
       7110.4560       2.1621181
       7111.4178       2.1026099
       7112.3795       2.0401479
       7113.3413       1.8239013
       7114.3031       2.0681555
       7115.2648       2.1513992
       7116.2266       2.0630792
       7117.1883       1.8468252
       7118.1501       1.8499052
       7119.1119       2.2097240
       7120.0736       2.1318697
       7121.0354       2.2257655
       7121.9971       1.8739585
       7122.9589       1.8130755
       7123.9207       1.8366568
       7124.8824       1.9858244
       7125.8442       2.0382065
       7126.8059       2.0210007
       7127.7677       1.9596169
       7128.7295       1.9554011
       7129.6912       1.9445650
       7130.6530       2.1976869
       7131.6147       2.1659000
       7132.5765       2.1451015
       7133.5383       2.2840903
       7134.5000       2.0848770
       7135.4618       1.9059392
       7136.4235       1.9742235
       7137.3853       2.0829101
       7138.3471       2.2562919
       7139.3088       2.1432712
       7140.2706       1.9410524
       7141.2323       2.1489259
       7142.1941       2.3083232
       7143.1559       2.1038575
       7144.1176       1.8746268
       7145.0794       2.0924586
       7146.0412       2.0624605
       7147.0029       2.0228477
       7147.9647       2.0360090
       7148.9264       1.9286097
       7149.8882       2.1124356
       7150.8500       2.4312492
       7151.8117       2.4156552
       7152.7735       2.2089232
       7153.7352       2.1878968
       7154.6970       2.2459895
       7155.6588       2.0885289
       7156.6205       2.0727151
       7157.5823       1.9862435
       7158.5440       1.7764241
       7159.5058       2.0338757
       7160.4676       1.9998200
       7161.4293       2.0660797
       7162.3911       2.0156575
       7163.3528       1.9688099
       7164.3146       2.0416413
       7165.2764       2.1307109
       7166.2381       2.1193990
       7167.1999       2.0579213
       7168.1616       2.0707159
       7169.1234       2.0406376
       7170.0852       1.9668299
       7171.0469       2.1008984
       7172.0087       2.0985334
       7172.9704       2.2127072
       7173.9322       2.0946748
       7174.8940       2.0981513
       7175.8557       2.1127567
       7176.8175       2.0568382
       7177.7792       2.0563351
       7178.7410       1.9915976
       7179.7028       1.9125709
       7180.6645       2.0705533
       7181.6263       2.1018052
       7182.5880       2.0016064
       7183.5498       1.9216975
       7184.5116       2.0236560
       7185.4733       2.0864538
       7186.4351       2.1018970
       7187.3968       2.0492387
       7188.3586       2.2225976
       7189.3204       2.1211393
       7190.2821       2.0776717
       7191.2439       2.1570253
       7192.2057       2.0293447
       7193.1674       2.1171306
       7194.1292       2.1008559
       7195.0909       2.1163260
       7196.0527       2.0711504
       7197.0145       1.9859319
       7197.9762       2.0714997
       7198.9380       2.0648804
       7199.8997       2.0698206
       7200.8615       2.2490287
       7201.8233       2.1650737
       7202.7850       2.0223770
       7203.7468       1.7753955
       7204.7085       1.8882011
       7205.6703       2.0190312
       7206.6321       2.0579675
       7207.5938       2.1252052
       7208.5556       1.9774836
       7209.5173       2.0688665
       7210.4791       2.1086680
       7211.4409       2.0716359
       7212.4026       2.1349291
       7213.3644       2.2905075
       7214.3261       2.2155125
       7215.2879       2.1961911
       7216.2497       2.1432897
       7217.2114       2.1689130
       7218.1732       2.1999674
       7219.1349       2.2268653
       7220.0967       2.2263744
       7221.0585       2.2568744
       7222.0202       2.1152352
       7222.9820       2.3148393
       7223.9437       2.4265272
       7224.9055       2.3223841
       7225.8673       2.3739402
       7226.8290       2.0729767
       7227.7908       2.4535109
       7228.7525       2.0238810
       7229.7143       1.8991863
       7230.6761       1.7875684
       7231.6378       1.8310167
       7232.5996       2.4226003
       7233.5613       2.3068104
       7234.5231       2.3573386
       7235.4849       2.4403402
       7236.4466       2.1718057
       7237.4084       2.3897463
       7238.3702       2.4012243
       7239.3319       2.2641759
       7240.2937       2.3799850
       7241.2554       2.7532195
       7242.2172       2.6251528
       7243.1790       2.3436723
       7244.1407       2.1665249
       7245.1025       2.0195243
       7246.0642       2.1424442
       7247.0260       2.0340841
       7247.9878       2.2697761
       7248.9495       2.3916122
       7249.9113       2.4005415
       7250.8730       2.6927126
       7251.8348       2.3011717
       7252.7966       2.0459962
       7253.7583       2.2183709
       7254.7201       2.2884276
       7255.6818       2.3170793
       7256.6436       2.1816203
       7257.6054       2.2011764
       7258.5671       2.2544089
       7259.5289       2.2455306
       7260.4906       2.2970111
       7261.4524       2.1595797
       7262.4142       2.2558431
       7263.3759       2.1802677
       7264.3377       2.2143476
       7265.2994       2.2224552
       7266.2612       2.1218325
       7267.2230       2.2756219
       7268.1847       2.3445941
       7269.1465       2.3582586
       7270.1082       2.2290397
       7271.0700       2.2509700
       7272.0318       2.2749848
       7272.9935       2.2909829
       7273.9553       2.1500235
       7274.9170       2.0854832
       7275.8788       1.6437232
       7276.8406       1.9113772
       7277.8023       2.2765566
       7278.7641       2.2520363
       7279.7258       2.5772910
       7280.6876       3.0346379
       7281.6494       2.9443694
       7282.6111       3.1615642
       7283.5729       3.2478431
       7284.5347       3.6168191
       7285.4964       3.6499647
       7286.4582       3.5548093
       7287.4199       3.4972522
       7288.3817       2.8822298
       7289.3435       2.4934764
       7290.3052       2.5576139
       7291.2670       2.3256320
       7292.2287       2.2668779
       7293.1905       2.2712953
       7294.1523       2.1898263
       7295.1140       2.2964709
       7296.0758       2.2876573
       7297.0375       2.0713485
       7297.9993       2.1332653
       7298.9611       2.4547031
       7299.9228       2.5071751
       7300.8846       2.3492101
       7301.8463       2.3073653
       7302.8081       2.3275291
       7303.7699       2.3463536
       7304.7316       2.2997463
       7305.6934       2.3061025
       7306.6551       2.3321684
       7307.6169       2.3836245
       7308.5787       2.2419112
       7309.5404       2.2544630
       7310.5022       2.2588065
       7311.4639       2.6584524
       7312.4257       2.4813705
       7313.3875       2.5966819
       7314.3492       2.6903293
       7315.3110       2.5119147
       7316.2727       2.2268489
       7317.2345       2.2167626
       7318.1963       2.2632172
       7319.1580       2.3049695
       7320.1198       2.3906149
       7321.0815       2.4676497
       7322.0433       2.3048229
       7323.0051       2.1199432
       7323.9668       2.2081085
       7324.9286       2.2660244
       7325.8903       2.5697300
       7326.8521       2.2742888
       7327.8139       2.3651424
       7328.7756       2.8588201
       7329.7374       2.8533897
       7330.6992       2.4805861
       7331.6609       2.4566692
       7332.6227       2.2853102
       7333.5844       2.2810774
       7334.5462       2.2987885
       7335.5080       2.3895683
       7336.4697       2.3588846
       7337.4315       2.5188020
       7338.3932       2.3810420
       7339.3550       2.5179837
       7340.3168       2.4297594
       7341.2785       1.9610406
       7342.2403       2.3940917
       7343.2020       2.5455170
       7344.1638       2.5401197
       7345.1256       2.3941379
       7346.0873       2.3509032
       7347.0491       2.3996591
       7348.0108       2.4088310
       7348.9726       2.3155426
       7349.9344       2.2876811
       7350.8961       1.7110188
       7351.8579       2.2361665
       7352.8196       2.4403852
       7353.7814       2.1116504
       7354.7432       2.3762733
       7355.7049       3.0751681
       7356.6667       3.4168693
       7357.6284       2.6101571
       7358.5902       2.4131405
       7359.5520       2.4153938
       7360.5137       2.3086160
       7361.4755       2.3419758
       7362.4372       2.3870837
       7363.3990       2.4318556
       7364.3608       2.6002662
       7365.3225       2.6213883
       7366.2843       2.6001284
       7367.2460       2.6215632
       7368.2078       2.4414926
       7369.1696       2.4032620
       7370.1313       2.5009328
       7371.0931       2.5017354
       7372.0549       2.4456934
       7373.0166       2.6124002
       7373.9784       2.4921399
       7374.9401       2.2219343
       7375.9019       2.4665348
       7376.8637       2.3579093
       7377.8254       2.2933030
       7378.7872       2.3788792
       7379.7489       2.3733143
       7380.7107       2.2629537
       7381.6725       2.1307653
       7382.6342       2.1958221
       7383.5960       2.6763048
       7384.5577       2.6943343
       7385.5195       2.6100615
       7386.4813       2.5361651
       7387.4430       2.9169336
       7388.4048       1.9847725
       7389.3665       2.2637609
       7390.3283       2.3169810
       7391.2901       2.2629940
       7392.2518       2.3653863
       7393.2136       2.3098529
       7394.1753       2.3639790
       7395.1371       2.5177763
       7396.0989       2.5470785
       7397.0606       2.4423073
       7398.0224       2.4551315
       7398.9841       2.5025199
       7399.9459       2.3486906
       7400.9077       2.3598037
       7401.8694       2.2550952
       7402.8312       2.3586452
       7403.7929       2.4161974
       7404.7547       2.4316549
       7405.7165       2.4331791
       7406.6782       2.3339665
       7407.6400       2.2802860
       7408.6017       2.5265058
       7409.5635       2.5596318
       7410.5253       2.2343093
       7411.4870       2.2479763
       7412.4488       2.3532897
       7413.4105       2.4451719
       7414.3723       2.3227865
       7415.3341       2.3055234
       7416.2958       2.5207517
       7417.2576       2.3503497
       7418.2194       2.5175554
       7419.1811       2.6473754
       7420.1429       2.6418397
       7421.1046       2.6619469
       7422.0664       2.4899773
       7423.0282       2.4656812
       7423.9899       2.2046204
       7424.9517       2.2293901
       7425.9134       2.3622006
       7426.8752       2.3072329
       7427.8370       2.4261841
       7428.7987       2.4540112
       7429.7605       2.4185494
       7430.7222       2.3837426
       7431.6840       2.4331556
       7432.6458       2.3255295
       7433.6075       2.3853597
       7434.5693       2.4350857
       7435.5310       2.3210175
       7436.4928       2.3351977
       7437.4546       2.3358308
       7438.4163       2.2756177
       7439.3781       2.2840529
       7440.3398       2.3878606
       7441.3016       2.5186297
       7442.2634       2.4802865
       7443.2251       2.4938040
       7444.1869       2.6008222
       7445.1486       2.5868012
       7446.1104       2.3998137
       7447.0722       2.5508112
       7448.0339       2.5579697
       7448.9957       2.5084969
       7449.9574       2.6134575
       7450.9192       2.6147176
       7451.8810       2.4808483
       7452.8427       2.5065382
       7453.8045       2.6526974
       7454.7662       2.5320499
       7455.7280       2.5977828
       7456.6898       2.4124861
       7457.6515       2.5564972
       7458.6133       2.8001320
       7459.5750       2.5227174
       7460.5368       2.7341889
       7461.4986       2.7471575
       7462.4603       2.6906005
       7463.4221       2.6889973
       7464.3839       2.4561094
       7465.3456       2.5056717
       7466.3074       2.5357376
       7467.2691       2.5023813
       7468.2309       2.5106346
       7469.1927       2.5119038
       7470.1544       2.4682763
       7471.1162       2.6671429
       7472.0779       2.7220675
       7473.0397       2.6790723
       7474.0015       2.6756233
       7474.9632       2.6519844
       7475.9250       2.6072420
       7476.8867       2.4485891
       7477.8485       2.4870071
       7478.8103       2.7144224
       7479.7720       2.5585313
       7480.7338       2.4685450
       7481.6955       2.3951808
       7482.6573       2.5262888
       7483.6191       2.5958919
       7484.5808       2.5590083
       7485.5426       2.5549612
       7486.5043       2.5850639
       7487.4661       2.4752116
       7488.4279       2.4926290
       7489.3896       2.5304688
       7490.3514       2.4636366
       7491.3131       2.6293921
       7492.2749       2.7350401
       7493.2367       2.6441045
       7494.1984       2.5165517
       7495.1602       2.5197042
       7496.1219       2.6207773
       7497.0837       2.7133901
       7498.0455       2.5752722
       7499.0072       2.4745600
       7499.9690       2.4093972
       7500.9307       2.6487184
       7501.8925       2.8897439
       7502.8543       2.5067706
       7503.8160       2.6169634
       7504.7778       2.5876312
       7505.7395       2.6922581
       7506.7013       2.6761950
       7507.6631       2.6421866
       7508.6248       2.6754788
       7509.5866       2.7388461
       7510.5484       2.6246190
       7511.5101       2.6564712
       7512.4719       2.6086431
       7513.4336       2.6623670
       7514.3954       2.6636709
       7515.3572       2.5758511
       7516.3189       2.6568979
       7517.2807       2.5697524
       7518.2424       2.5984039
       7519.2042       2.7772928
       7520.1660       2.7273546
       7521.1277       2.7503291
       7522.0895       2.7409726
       7523.0512       2.7000623
       7524.0130       2.6782797
       7524.9748       2.5649274
       7525.9365       2.5292338
       7526.8983       2.4377609
       7527.8600       2.3814396
       7528.8218       2.5124144
       7529.7836       2.5776440
       7530.7453       2.6262116
       7531.7071       2.6848696
       7532.6688       2.7056339
       7533.6306       2.5083728
       7534.5924       2.8845857
       7535.5541       2.7279030
       7536.5159       2.6274585
       7537.4776       2.6194833
       7538.4394       2.7193856
       7539.4012       2.8244518
       7540.3629       2.7447516
       7541.3247       2.6726796
       7542.2864       2.8791720
       7543.2482       2.7879595
       7544.2100       2.7997072
       7545.1717       2.6778766
       7546.1335       2.6634736
       7547.0952       2.6896802
       7548.0570       2.7730263
       7549.0188       3.0624108
       7549.9805       3.0706366
       7550.9423       2.9592353
       7551.9040       3.0031021
       7552.8658       3.0085549
       7553.8276       2.9065321
       7554.7893       2.6260511
       7555.7511       2.6679571
       7556.7129       2.6739473
       7557.6746       2.7648258
       7558.6364       2.6224606
       7559.5981       2.5951111
       7560.5599       2.6531726
       7561.5217       2.6428368
       7562.4834       2.6673808
       7563.4452       2.6223103
       7564.4069       2.7879396
       7565.3687       2.9203222
       7566.3305       2.6957045
       7567.2922       2.7605344
       7568.2540       2.7562031
       7569.2157       2.8006384
       7570.1775       2.7037993
       7571.1393       2.6931465
       7572.1010       2.6222921
       7573.0628       2.6321050
       7574.0245       2.6289424
       7574.9863       2.5689377
       7575.9481       2.5495082
       7576.9098       2.6908499
       7577.8716       2.7099556
       7578.8333       2.8537980
       7579.7951       2.7841957
       7580.7569       2.7314993
       7581.7186       2.7574705
       7582.6804       2.7813876
       7583.6421       2.7293116
       7584.6039       2.8128596
       7585.5657       2.5622509
       7586.5274       2.6961349
       7587.4892       2.7077914
       7588.4509       2.6324780
       7589.4127       2.6287919
       7590.3745       2.8118687
       7591.3362       2.6509605
       7592.2980       2.7899254
       7593.2597       2.7930604
       7594.2215       2.6151888
       7595.1833       2.6755928
       7596.1450       2.6771621
       7597.1068       2.6930692
       7598.0686       2.6539908
       7599.0303       2.6818455
       7599.9921       2.8033826
       7600.9538       2.7120667
       7601.9156       2.9702834
       7602.8774       2.9534489
       7603.8391       2.8775798
       7604.8009       2.6505201
       7605.7626       2.8244655
       7606.7244       2.9123033
       7607.6862       2.8086439
       7608.6479       2.7229336
       7609.6097       2.6770348
       7610.5714       2.7877305
       7611.5332       2.8910908
       7612.4950       2.7255743
       7613.4567       2.6004727
       7614.4185       2.7592242
       7615.3802       2.7812579
       7616.3420       2.7276681
       7617.3038       2.7055209
       7618.2655       2.8202576
       7619.2273       2.7053253
       7620.1890       2.5136267
       7621.1508       2.6876705
       7622.1126       2.7644543
       7623.0743       2.7069679
       7624.0361       2.6468890
       7624.9978       2.7072677
       7625.9596       2.7023264
       7626.9214       2.6188456
       7627.8831       2.7190155
       7628.8449       2.6863131
       7629.8066       2.7755602
       7630.7684       2.5914331
       7631.7302       2.7491673
       7632.6919       2.8722691
       7633.6537       2.8717462
       7634.6154       2.8014016
       7635.5772       2.6929786
       7636.5390       2.7640377
       7637.5007       2.7334586
       7638.4625       2.6689625
       7639.4242       2.9052633
       7640.3860       2.7178190
       7641.3478       2.7324603
       7642.3095       2.7236860
       7643.2713       2.4550643
       7644.2331       2.4313018
       7645.1948       2.4230792
       7646.1566       2.5601296
       7647.1183       2.4262890
       7648.0801       2.5291646
       7649.0419       2.4413455
       7650.0036       2.4726602
       7650.9654       2.4822292
       7651.9271       2.4613623
       7652.8889       2.5633014
       7653.8507       2.5198314
       7654.8124       2.5873354
       7655.7742       2.5980797
       7656.7359       2.4755782
       7657.6977       2.4809431
       7658.6595       2.4528489
       7659.6212       2.5321657
       7660.5830       2.5774706
       7661.5447       2.5744623
       7662.5065       2.4167994
       7663.4683       2.4967086
       7664.4300       2.5330021
       7665.3918       2.6001434
       7666.3535       2.7319215
       7667.3153       2.7823926
       7668.2771       2.5619456
       7669.2388       2.2165506
       7670.2006       3.2003712
       7671.1623       3.6151869
       7672.1241       2.7569731
       7673.0859       1.9344860
       7674.0476       2.0490066
       7675.0094       3.1012950
       7675.9711       2.0679219
       7676.9329       1.1231500
       7677.8947       1.8345216
       7678.8564       2.3419866
       7679.8182       2.5435481
       7680.7799       3.0235668
       7681.7417       3.2895776
       7682.7035       2.9240842
       7683.6652       2.3284480
       7684.6270       2.0672623
       7685.5887       2.1654769
       7686.5505       2.0915706
       7687.5123       2.2721679
       7688.4740       2.2059175
       7689.4358       2.4094056
       7690.3976       2.3256235
       7691.3593       2.0577072
       7692.3211       2.0429129
       7693.2828       1.9949239
       7694.2446       2.3099526
       7695.2064       2.1943510
       7696.1681       1.6772070
       7697.1299       1.5043645
       7698.0916       1.7383786
       7699.0534       1.9556179
       7700.0152       2.1542794
       7700.9769       2.3026958
       7701.9387       2.5961115
       7702.9004       2.4570076
       7703.8622       2.2321357
       7704.8240       2.2760456
       7705.7857       1.9830438
       7706.7475       1.7933934
       7707.7092       1.8301690
       7708.6710       1.9876751
       7709.6328       1.9061714
       7710.5945       2.2027280
       7711.5563       2.2840151
       7712.5180       2.1412042
       7713.4798       2.2665977
       7714.4416       2.2693482
       7715.4033       2.2591354
       7716.3651       2.1530837
       7717.3268       2.0703903
       7718.2886       2.1565378
       7719.2504       1.8536792
       7720.2121       1.6138778
       7721.1739       1.6186725
       7722.1356       3.0319503
       7723.0974       2.9230141
       7724.0592       2.6244957
       7725.0209       2.7471159
       7725.9827       1.9847515
       7726.9444       1.6379448
       7727.9062       2.0568791
       7728.8680       2.5186127
       7729.8297       2.2180441
       7730.7915       2.2227609
       7731.7532       2.4502969
       7732.7150       2.5075009
       7733.6768       2.4592452
       7734.6385       2.5376326
       7735.6003       2.4430140
       7736.5621       2.6221326
       7737.5238       2.5156055
       7738.4856       2.6021508
       7739.4473       2.5984505
       7740.4091       2.6359371
       7741.3709       2.4405900
       7742.3326       2.6260941
       7743.2944       2.7332044
       7744.2561       2.7934541
       7745.2179       2.7255487
       7746.1797       2.9411411
       7747.1414       2.8926983
       7748.1032       2.4528089
       7749.0649       2.6638472
       7750.0267       2.3890419
       7750.9885       2.4136240
       7751.9502       2.4309750
       7752.9120       2.3566202
       7753.8737       2.5037858
       7754.8355       2.5999398
       7755.7973       2.9003590
       7756.7590       2.7537034
       7757.7208       2.3705072
       7758.6825       2.0525032
       7759.6443       2.3984579
       7760.6061       2.3956953
       7761.5678       2.0521204
       7762.5296       1.8776791
       7763.4913       1.9505672
       7764.4531       1.7307047
       7765.4149       1.7758585
       7766.3766       1.7236835
       7767.3384       2.1103800
       7768.3001       2.2839947
       7769.2619       2.5950455
       7770.2237       2.3829946
       7771.1854       1.8636038
       7772.1472       2.3537984
       7773.1089       2.5481538
       7774.0707       2.3224628
       7775.0325       2.3185915
       7775.9942       2.4341050
       7776.9560       2.5633183
       7777.9177       2.7644393
       7778.8795       2.0299150
       7779.8413       2.1671166
       7780.8030       2.2325976
       7781.7648       2.7832860
       7782.7266       2.6451369
       7783.6883       2.4997767
       7784.6501       2.5929745
       7785.6118       2.3740789
       7786.5736       2.1785090
       7787.5354       2.7257551
       7788.4971       2.5415009
       7789.4589       2.7841446
       7790.4206       2.4953665
       7791.3824       2.5144738
       7792.3442       2.6047750
       7793.3059       2.4259694
       7794.2677       2.4955427
       7795.2294       2.3769986
       7796.1912       2.5232538
       7797.1530       2.4501412
       7798.1147       2.4645469
       7799.0765       2.4649591
       7800.0382       2.5243671
       7801.0000       1.8289593
       7801.9618       2.1820765
       7802.9235       2.4557511
       7803.8853       1.7086335
       7804.8470       2.9097794
       7805.8088       2.5048382
       7806.7706       3.1348080
       7807.7323       2.2055002
       7808.6941       1.0474616
       7809.6558       2.2632982
       7810.6176       2.0552105
       7811.5794       2.2167928
       7812.5411       2.5304321
       7813.5029       2.8094019
       7814.4646       2.7809114
       7815.4264       2.6773480
       7816.3882       2.4944613
       7817.3499       2.5649205
       7818.3117       2.2947961
       7819.2734       2.2548245
       7820.2352       2.2366977
       7821.1970       2.1502417
       7822.1587       1.8132836
       7823.1205       1.9528134
       7824.0823       2.2357509
       7825.0440       2.2427572
       7826.0058       1.7214718
       7826.9675       2.6662730
       7827.9293       3.1149424
       7828.8911       2.7536433
       7829.8528       2.7136673
       7830.8146       2.8923963
       7831.7763       2.9470859
       7832.7381       2.7736716
       7833.6999       2.6364139
       7834.6616       2.6109367
       7835.6234       2.1509590
       7836.5851       2.5555790
       7837.5469       2.8775950
       7838.5087       2.8154856
       7839.4704       2.3228743
       7840.4322       2.9367391
       7841.3939       2.5021751
       7842.3557       2.6439659
       7843.3175       2.5060346
       7844.2792       2.4115019
       7845.2410       2.4299163
       7846.2027       2.7149205
       7847.1645       2.6500523
       7848.1263       2.7891925
       7849.0880       2.6118205
       7850.0498       2.7299608
       7851.0115       2.7576630
       7851.9733       2.9773812
       7852.9351       2.8072709
       7853.8968       2.6045136
       7854.8586       2.6122483
       7855.8203       2.7577814
       7856.7821       2.4708453
       7857.7439       2.7228591
       7858.7056       2.5890987
       7859.6674       2.4438922
       7860.6291       2.6463736
       7861.5909       2.3877972
       7862.5527       2.5189954
       7863.5144       3.1306601
       7864.4762       2.8107858
       7865.4379       2.7303177
       7866.3997       2.8113865
       7867.3615       3.0321329
       7868.3232       2.9325181
       7869.2850       2.6190587
       7870.2468       2.6867894
       7871.2085       2.8426811
       7872.1703       2.5547821
       7873.1320       2.5241948
       7874.0938       2.3048545
       7875.0556       2.2997159
       7876.0173       2.6974622
       7876.9791       2.5716736
       7877.9408       2.3481210
       7878.9026       2.2759373
       7879.8644       3.0983483
       7880.8261       2.9461350
       7881.7879       2.8073873
       7882.7496       2.6529278
       7883.7114       2.9380837
       7884.6732       2.7603261
       7885.6349       2.9596008
       7886.5967       2.7947869
       7887.5584       2.5607170
       7888.5202       2.6309162
       7889.4820       2.4066852
       7890.4437       2.6235442
       7891.4055       2.6644662
       7892.3672       2.5008838
       7893.3290       2.6504216
       7894.2908       2.5311985
       7895.2525       2.5177467
       7896.2143       2.3733759
       7897.1760       2.3802012
       7898.1378       2.3632199
       7899.0996       2.6582018
       7900.0613       2.3906433
       7901.0231       2.6487355
       7901.9848       2.5362275
       7902.9466       2.5973801
       7903.9084       2.7881190
       7904.8701       2.5301856
       7905.8319       2.7760894
       7906.7936       2.7502844
       7907.7554       2.9584310
       7908.7172       2.7476974
       7909.6789       2.7690704
       7910.6407       3.1944506
       7911.6024       2.8464415
       7912.5642       3.0137902
       7913.5260       2.5097244
       7914.4877       2.6312975
       7915.4495       2.6636134
       7916.4113       2.7257639
       7917.3730       2.5375392
       7918.3348       2.9439572
       7919.2965       2.4637912
       7920.2583       2.6052530
       7921.2201       2.7933181
       7922.1818       2.5725012
       7923.1436       2.5615258
       7924.1053       2.3663036
       7925.0671       2.3458370
       7926.0289       2.7789107
       7926.9906       2.7363138
       7927.9524       2.8365412
       7928.9141       3.0137613
       7929.8759       3.0002365
       7930.8377       2.7874606
       7931.7994       2.8491331
       7932.7612       2.7215059
       7933.7229       2.8767745
       7934.6847       2.8462392
       7935.6465       2.7762480
       7936.6082       2.8924128
       7937.5700       2.8444651
       7938.5317       2.6911420
       7939.4935       2.8048382
       7940.4553       2.7909849
       7941.4170       2.7744067
       7942.3788       2.8451849
       7943.3405       2.8527521
       7944.3023       2.9284021
       7945.2641       2.9296164
       7946.2258       3.0646909
       7947.1876       2.7612656
       7948.1493       2.9210207
       7949.1111       2.9505120
       7950.0729       2.7771029
       7951.0346       2.8455868
       7951.9964       2.8667298
       7952.9581       3.0219548
       7953.9199       3.0645909
       7954.8817       3.0484312
       7955.8434       3.2340510
       7956.8052       3.8694352
       7957.7669       3.8489540
       7958.7287       3.8952249
       7959.6905       2.9263649
       7960.6522       2.4609934
       7961.6140       2.2189032
       7962.5758       2.7631335
       7963.5375       2.8006772
       7964.4993       2.9710387
       7965.4610       2.4561340
       7966.4228       2.6125175
       7967.3846       2.6960596
       7968.3463       2.5483842
       7969.3081       2.3249769
       7970.2698       3.0638787
       7971.2316       4.4356600
       7972.1934       4.3801776
       7973.1551       3.9676512
       7974.1169       2.8205101
       7975.0786       2.9763327
       7976.0404       2.7290961
       7977.0022       3.0620264
       7977.9639       2.8137296
       7978.9257       3.2383660
       7979.8874       2.6352459
       7980.8492       2.6192442
       7981.8110       3.3433852
       7982.7727       2.1797000
       7983.7345       2.6373169
       7984.6962       3.1103050
       7985.6580       3.2980341
       7986.6198       3.2123133
       7987.5815       2.8158042
       7988.5433       3.1459185
       7989.5050       3.0617725
       7990.4668       3.0604080
       7991.4286       3.2857750
       7992.3903       2.8480780
       7993.3521       3.2146410
       7994.3138       3.1147586
       7995.2756       3.4754405
       7996.2374       2.7603446
       7997.1991       3.0622204
       7998.1609       2.7317554
       7999.1226       3.2217199
       8000.0844       3.4146954
       8001.0462       2.6888153
       8002.0079       3.1165499
       8002.9697       2.2373164
       8003.9314       3.4214577
       8004.8932       2.8474360
       8005.8550       2.9252037
       8006.8167       2.8597708
       8007.7785       2.7448418
       8008.7403       2.9471448
       8009.7020       2.7612459
       8010.6638       3.1652955
       8011.6255       2.6908376
       8012.5873       3.0436811
       8013.5491       2.9969378
       8014.5108       2.7771478
       8015.4726       3.2197140
       8016.4343       3.5442322
       8017.3961       3.2376845
       8018.3579       3.0652635
       8019.3196       2.9161649
       8020.2814       2.9417084
       8021.2431       2.8375992
       8022.2049       2.9516828
       8023.1667       2.9243161
       8024.1284       2.8009531
       8025.0902       3.0707602
       8026.0519       2.8569850
       8027.0137       2.9714056
       8027.9755       2.8910451
       8028.9372       2.8195729
       8029.8990       2.9380497
       8030.8607       2.9776256
       8031.8225       3.1143336
       8032.7843       2.7474410
       8033.7460       2.8377896
       8034.7078       2.9661676
       8035.6695       2.9976069
       8036.6313       2.7637662
       8037.5931       3.0847108
       8038.5548       3.0122410
       8039.5166       3.0217143
       8040.4783       2.9449552
       8041.4401       3.0566811
       8042.4019       3.0574288
       8043.3636       2.6975968
       8044.3254       2.9919333
       8045.2871       3.1855738
       8046.2489       2.7411656
       8047.2107       3.1406177
       8048.1724       3.0602663
       8049.1342       3.1187777
       8050.0960       3.1260544
       8051.0577       3.1058828
       8052.0195       2.9372475
       8052.9812       2.6721129
       8053.9430       2.4014731
       8054.9048       2.1824634
       8055.8665       2.7631887
       8056.8283       3.8714139
       8057.7900       3.7532815
       8058.7518       3.1736136
       8059.7136       3.2444620
       8060.6753       2.4289228
       8061.6371       2.5911251
       8062.5988       2.8998937
       8063.5606       3.2366021
       8064.5224       3.3197251
       8065.4841       3.7449985
       8066.4459       2.8320284
       8067.4076       2.9020584
       8068.3694       2.9051663
       8069.3312       3.0213468
       8070.2929       3.0927546
       8071.2547       2.8696581
       8072.2164       3.4586847
       8073.1782       3.2086112
       8074.1400       3.0929634
       8075.1017       2.9098403
       8076.0635       3.2324317
       8077.0252       3.2834623
       8077.9870       3.0194788
       8078.9488       3.0155870
       8079.9105       3.2718741
       8080.8723       2.9081472
       8081.8340       3.1458281
       8082.7958       2.9472145
       8083.7576       2.9879931
       8084.7193       3.1616231
       8085.6811       3.1846308
       8086.6428       3.1019201
       8087.6046       3.3481216
       8088.5664       3.0321793
       8089.5281       2.9822757
       8090.4899       3.0314040
       8091.4516       2.8289485
       8092.4134       2.8160998
       8093.3752       2.7675718
       8094.3369       2.9449234
       8095.2987       2.9652724
       8096.2605       3.0649724
       8097.2222       3.2322851
       8098.1840       2.8182674
       8099.1457       2.9172662
       8100.1075       2.7146881
       8101.0693       2.9412864
       8102.0310       3.8229317
       8102.9928       3.5760143
       8103.9545       3.2477078
       8104.9163       3.5830458
       8105.8781       3.5427205
       8106.8398       3.3859368
       8107.8016       3.0493607
       8108.7633       2.8848325
       8109.7251       2.7341351
       8110.6869       3.1315141
       8111.6486       2.8951973
       8112.6104       2.9611926
       8113.5721       2.8372575
       8114.5339       3.0118498
       8115.4957       3.2977335
       8116.4574       3.1741701
       8117.4192       3.0907794
       8118.3809       3.0393631
       8119.3427       3.3615895
       8120.3045       3.7810845
       8121.2662       3.6604758
       8122.2280       2.8501339
       8123.1897       2.6872852
       8124.1515       4.0345960
       8125.1133       4.5197448
       8126.0750       2.9642660
       8127.0368       2.5118735
       8127.9985       2.9013823
       8128.9603       2.8473480
       8129.9221       3.2150808
       8130.8838       2.9599036
       8131.8456       2.9467925
       8132.8073       2.7584459
       8133.7691       2.9071850
       8134.7309       2.9020653
       8135.6926       2.9403601
       8136.6544       2.9198588
       8137.6161       3.4284290
       8138.5779       3.5897484
       8139.5397       3.7722565
       8140.5014       3.2751155
       8141.4632       3.9457350
       8142.4250       3.1784464
       8143.3867       3.5825274
       8144.3485       2.7928919
       8145.3102       2.9290399
       8146.2720       3.1454018
       8147.2338       3.1691025
       8148.1955       3.3274408
       8149.1573       2.8142694
       8150.1190       2.7472054
       8151.0808       2.8443711
       8152.0426       2.7801794
       8153.0043       2.0115842
       8153.9661       2.0573902
       8154.9278       3.3986199
       8155.8896       2.7802351
       8156.8514       2.7544408
       8157.8131       3.1441745
       8158.7749       5.0687377
       8159.7366       4.7362664
       8160.6984       3.7785769
       8161.6602       2.9391144
       8162.6219       3.2668455
       8163.5837       3.0974492
       8164.5454       2.8219416
       8165.5072       2.7493655
       8166.4690       2.7628588
       8167.4307       2.5003582
       8168.3925       2.6339379
       8169.3542       2.5562662
       8170.3160       2.8527669
       8171.2778       2.8161283
       8172.2395       2.8232166
       8173.2013       2.5023727
       8174.1630       3.1105839
       8175.1248       2.2578480
       8176.0866       3.3789294
       8177.0483       2.8463024
       8178.0101       1.9096938
       8178.9718       2.5399491
       8179.9336       1.9015914
       8180.8954       2.6204506
       8181.8571       2.2652785
       8182.8189       3.1783313
       8183.7806       2.8579455
       8184.7424       3.9184149
       8185.7042       3.1957833
       8186.6659       2.4406465
       8187.6277       1.9477649
       8188.5895       2.2953148
       8189.5512       3.8775071
       8190.5130       2.2972053
       8191.4747       2.1336072
       8192.4365       3.5368060
       8193.3983       3.9877395
       8194.3600       2.6241510
       8195.3218       2.4698974
       8196.2835       3.4685897
       8197.2453       3.7119247
       8198.2071       2.7725412
       8199.1688       2.3614051
       8200.1306       2.6672240
       8201.0923       3.1420352
       8202.0541       3.2365984
       8203.0159       3.1242711
       8203.9776       2.5245922
       8204.9394       2.9040326
       8205.9011       2.9091265
       8206.8629       2.6927201
       8207.8247       2.5867020
       8208.7864       2.6397460
       8209.7482       2.4795939
       8210.7099       2.5966273
       8211.6717       2.7024510
       8212.6335       2.7303330
       8213.5952       2.7884995
       8214.5570       2.7027982
       8215.5187       2.8705800
       8216.4805       2.7237332
       8217.4423       2.9370776
       8218.4040       2.7263809
       8219.3658       2.7762547
       8220.3275       2.5650389
       8221.2893       2.7900245
       8222.2511       2.2392547
       8223.2128       2.8091362
       8224.1746       2.1891182
       8225.1363       1.9761385
       8226.0981       2.3343821
       8227.0599       2.2218530
       8228.0216       2.7419181
       8228.9834       2.2060554
       8229.9451       2.6261173
       8230.9069       2.9103026
       8231.8687       2.6660606
       8232.8304       3.9202805
       8233.7922       3.9477950
       8234.7540       3.2763367
       8235.7157       4.5413824
       8236.6775       3.9148430
       8237.6392       4.3218462
       8238.6010       3.8778895
       8239.5628       2.1815097
       8240.5245       1.8755865
       8241.4863       2.5288277
       8242.4480       1.9594928
       8243.4098       3.3292419
       8244.3716       2.7683251
       8245.3333       2.5846968
       8246.2951       2.7943559
       8247.2568       2.4007256
       8248.2186       2.5426500
       8249.1804       2.3684948
       8250.1421       2.3703452
       8251.1039       2.3566710
       8252.0656       2.3448889
       8253.0274       2.5552083
       8253.9892       2.4879567
       8254.9509       2.6712001
       8255.9127       2.2517896
       8256.8744       2.6873131
       8257.8362       2.7393941
       8258.7980       2.6913107
       8259.7597       2.8385975
       8260.7215       2.9311025
       8261.6832       2.8404779
       8262.6450       2.6686907
       8263.6068       2.2292443
       8264.5685       2.5089955
       8265.5303       2.1856746
       8266.4920       2.3683842
       8267.4538       2.5087344
       8268.4156       2.7484681
       8269.3773       2.5132814
       8270.3391       2.0415882
       8271.3008       2.3466710
       8272.2626       2.7604679
       8273.2244       2.3765085
       8274.1861       1.4027620
       8275.1479       2.2178007
       8276.1097       1.3304207
       8277.0714       2.2601446
       8278.0332       1.8480670
       8278.9949       2.0828805
       8279.9567       2.3967015
       8280.9185       1.8036632
       8281.8802       2.2756547
       8282.8420       2.0850974
       8283.8037       2.5900277
       8284.7655       2.3427450
       8285.7273       2.0533101
       8286.6890       2.2229060
       8287.6508       2.1956276
       8288.6125       1.8496213
       8289.5743       2.8614096
       8290.5361       2.8156116
       8291.4978       2.7172288
       8292.4596       2.3241233
       8293.4213       3.6731980
       8294.3831       3.5217016
       8295.3449       1.0699035
       8296.3066       2.1386121
       8297.2684       2.2729856
       8298.2301       2.5643747
       8299.1919       2.2826926
       8300.1537       2.3145381
       8301.1154       2.1825019
       8302.0772       2.2931773
       8303.0389       2.2237186
       8304.0007       2.4951425
       8304.9625       2.0286369
       8305.9242       2.5764421
       8306.8860       2.7295405
       8307.8477       3.1532203
       8308.8095       2.8334530
       8309.7713       2.8845501
       8310.7330       3.5960019
       8311.6948       2.6350121
       8312.6565       2.2850294
       8313.6183       2.3189334
       8314.5801       2.0173737
       8315.5418       2.2581739
