# wavelength flux
       2514.5741      0.11875019
       2515.4396      0.10948872
       2516.3051      0.15026494
       2517.1705      0.14016867
       2518.0360      0.11894047
       2518.9015     0.054956801
       2519.7670     0.074866003
       2520.6325     0.069859562
       2521.4980     0.043753426
       2522.3634     0.084090617
       2523.2289      0.16874531
       2524.0944      0.20876645
       2524.9599      0.25183648
       2525.8254      0.27500537
       2526.6909      0.21640411
       2527.5563      0.16928784
       2528.4218      0.17452190
       2529.2873      0.10957240
       2530.1528      0.22857109
       2531.0183      0.22189954
       2531.8838      0.19178759
       2532.7492      0.16413992
       2533.6147      0.11785803
       2534.4802      0.17574998
       2535.3457      0.19692741
       2536.2112      0.14265661
       2537.0767      0.10768763
       2537.9421      0.22530226
       2538.8076      0.11141489
       2539.6731     0.092973626
       2540.5386      0.11966841
       2541.4041      0.16738094
       2542.2696      0.22765191
       2543.1350      0.19694352
       2544.0005      0.22741132
       2544.8660      0.19774548
       2545.7315      0.22519119
       2546.5970      0.22132418
       2547.4625      0.25728067
       2548.3279      0.22705422
       2549.1934      0.25109405
       2550.0589      0.19338137
       2550.9244      0.17518193
       2551.7899      0.14296142
       2552.6554      0.21307870
       2553.5208      0.24220364
       2554.3863      0.22646394
       2555.2518      0.22331609
       2556.1173      0.21201018
       2556.9828      0.13166247
       2557.8482      0.18396682
       2558.7137      0.18755230
       2559.5792      0.17767906
       2560.4447      0.16974366
       2561.3102      0.13201415
       2562.1757      0.10403269
       2563.0411      0.17809745
       2563.9066      0.19913976
       2564.7721      0.22721535
       2565.6376      0.20971336
       2566.5031      0.20241877
       2567.3686      0.21404194
       2568.2340      0.16514902
       2569.0995      0.20204537
       2569.9650      0.21487596
       2570.8305      0.29794944
       2571.6960      0.18205854
       2572.5615      0.17192904
       2573.4269      0.22147161
       2574.2924      0.27098542
       2575.1579      0.14518777
       2576.0234      0.16375183
       2576.8889      0.15657155
       2577.7544      0.17149614
       2578.6198      0.23886251
       2579.4853      0.19721934
       2580.3508      0.15606948
       2581.2163      0.20662066
       2582.0818      0.24107220
       2582.9473      0.19987078
       2583.8127      0.21272073
       2584.6782      0.23167746
       2585.5437      0.22371522
       2586.4092      0.18093423
       2587.2747      0.24693805
       2588.1402      0.27046417
       2589.0056      0.26787633
       2589.8711      0.27662869
       2590.7366      0.29637638
       2591.6021      0.32599977
       2592.4676      0.26466320
       2593.3331      0.30090977
       2594.1985      0.25644291
       2595.0640      0.28607574
       2595.9295      0.22719868
       2596.7950      0.24444906
       2597.6605      0.24171145
       2598.5260      0.27123341
       2599.3914      0.21952231
       2600.2569      0.20549117
       2601.1224      0.22578621
       2601.9879      0.26247430
       2602.8534      0.19102946
       2603.7189      0.15329214
       2604.5843      0.25334257
       2605.4498      0.17599790
       2606.3153      0.16765612
       2607.1808      0.23577093
       2608.0463      0.22651645
       2608.9118      0.16831595
       2609.7772      0.22653865
       2610.6427      0.28143973
       2611.5082      0.20203394
       2612.3737      0.20583651
       2613.2392      0.21042943
       2614.1047      0.20222514
       2614.9701      0.23543411
       2615.8356      0.29355557
       2616.7011      0.22322771
       2617.5666      0.22335385
       2618.4321      0.28258662
       2619.2976      0.21981372
       2620.1630      0.18183604
       2621.0285      0.24579315
       2621.8940      0.37115863
       2622.7595      0.35008307
       2623.6250      0.39379028
       2624.4905      0.34675235
       2625.3559      0.36644520
       2626.2214      0.36659018
       2627.0869      0.30424322
       2627.9524      0.33156119
       2628.8179      0.34009197
       2629.6834      0.34474661
       2630.5488      0.29434868
       2631.4143      0.28144735
       2632.2798      0.28059536
       2633.1453      0.24266333
       2634.0108      0.23829837
       2634.8762      0.24244651
       2635.7417      0.23458482
       2636.6072      0.27640294
       2637.4727      0.23308523
       2638.3382      0.25582196
       2639.2037      0.25184727
       2640.0691      0.25614295
       2640.9346      0.24881503
       2641.8001      0.28794117
       2642.6656      0.30383283
       2643.5311      0.25941918
       2644.3966      0.25823844
       2645.2620      0.19892539
       2646.1275      0.18150530
       2646.9930      0.21236854
       2647.8585      0.25446002
       2648.7240      0.21393574
       2649.5895      0.26814975
       2650.4549      0.22230254
       2651.3204      0.19734870
       2652.1859      0.17107271
       2653.0514      0.18635544
       2653.9169      0.12670219
       2654.7824      0.18676266
       2655.6478      0.22896191
       2656.5133      0.15783692
       2657.3788      0.19943967
       2658.2443      0.22984727
       2659.1098      0.25209471
       2659.9753      0.31201678
       2660.8407      0.31097349
       2661.7062      0.24947859
       2662.5717      0.22382546
       2663.4372      0.23975218
       2664.3027      0.29931275
       2665.1682      0.24325574
       2666.0336      0.22340748
       2666.8991      0.27275765
       2667.7646      0.23851150
       2668.6301      0.27232362
       2669.4956      0.38502758
       2670.3611      0.29557127
       2671.2265      0.23222854
       2672.0920      0.19522493
       2672.9575      0.20445385
       2673.8230      0.21477026
       2674.6885      0.22882745
       2675.5540      0.19703376
       2676.4194      0.19165950
       2677.2849      0.11743064
       2678.1504      0.20964033
       2679.0159      0.22474057
       2679.8814      0.13074689
       2680.7469      0.15871208
       2681.6123      0.29188618
       2682.4778      0.27970753
       2683.3433      0.26793294
       2684.2088      0.24785884
       2685.0743      0.23318760
       2685.9398      0.28404265
       2686.8052      0.33520950
       2687.6707      0.28434557
       2688.5362      0.28590065
       2689.4017      0.22583116
       2690.2672      0.24568206
       2691.1327      0.27047556
       2691.9981      0.23035962
       2692.8636      0.25415335
       2693.7291      0.28484341
       2694.5946      0.27067742
       2695.4601      0.27438615
       2696.3256      0.27165806
       2697.1910      0.23457314
       2698.0565      0.21130322
       2698.9220      0.20708826
       2699.7875      0.25888256
       2700.6530      0.25424312
       2701.5185      0.17778298
       2702.3839      0.15751859
       2703.2494      0.22878735
       2704.1149      0.19732265
       2704.9804      0.22201545
       2705.8459      0.15272729
       2706.7114      0.19784299
       2707.5768      0.20623913
       2708.4423      0.17614435
       2709.3078      0.22448540
       2710.1733      0.20476575
       2711.0388      0.20314382
       2711.9043      0.30351016
       2712.7697      0.30877828
       2713.6352      0.21300063
       2714.5007      0.26442641
       2715.3662      0.18475006
       2716.2317      0.16396184
       2717.0971      0.24840837
       2717.9626      0.22235846
       2718.8281      0.22624522
       2719.6936      0.20794722
       2720.5591      0.19729170
       2721.4246      0.25222300
       2722.2900      0.23473742
       2723.1555      0.25476803
       2724.0210      0.22115651
       2724.8865      0.19188823
       2725.7520      0.21373056
       2726.6175      0.19848577
       2727.4829      0.23357793
       2728.3484      0.26375314
       2729.2139      0.18925278
       2730.0794      0.19870935
       2730.9449      0.20884411
       2731.8104      0.17561996
       2732.6758      0.20940090
       2733.5413      0.18524798
       2734.4068      0.18314552
       2735.2723      0.21983848
       2736.1378      0.20197080
       2737.0033      0.18501727
       2737.8687      0.23214399
       2738.7342      0.26058112
       2739.5997      0.26307592
       2740.4652      0.26267429
       2741.3307      0.25907490
       2742.1962      0.27638336
       2743.0616      0.28343335
       2743.9271      0.20091129
       2744.7926      0.15262393
       2745.6581      0.13805455
       2746.5236      0.18781412
       2747.3891      0.21463545
       2748.2545      0.16915251
       2749.1200      0.13861678
       2749.9855      0.21900343
       2750.8510      0.24828872
       2751.7165      0.25312302
       2752.5820      0.24330520
       2753.4474      0.18000286
       2754.3129      0.17658550
       2755.1784      0.20834501
       2756.0439      0.14273157
       2756.9094      0.21793960
       2757.7749      0.25553654
       2758.6403      0.20892028
       2759.5058      0.20960603
       2760.3713      0.23136761
       2761.2368      0.15418177
       2762.1023      0.15760192
       2762.9678      0.19097369
       2763.8332      0.26794134
       2764.6987      0.15882121
       2765.5642      0.20951800
       2766.4297      0.20559893
       2767.2952      0.16059262
       2768.1607      0.16012770
       2769.0261      0.18340671
       2769.8916      0.15411930
       2770.7571      0.23467197
       2771.6226      0.19771761
       2772.4881      0.17239024
       2773.3536      0.25437658
       2774.2190      0.22615872
       2775.0845      0.13763210
       2775.9500      0.15924624
       2776.8155      0.20196517
       2777.6810      0.19550644
       2778.5465      0.22564329
       2779.4119      0.20625776
       2780.2774      0.18103129
       2781.1429      0.23047381
       2782.0084      0.25298828
       2782.8739      0.20688210
       2783.7394      0.22210689
       2784.6048      0.26096265
       2785.4703      0.22961241
       2786.3358      0.18990082
       2787.2013      0.20899478
       2788.0668      0.19153404
       2788.9323      0.17172748
       2789.7977      0.17153729
       2790.6632      0.15294402
       2791.5287      0.21719585
       2792.3942      0.19197462
       2793.2597      0.12330687
       2794.1251      0.13432722
       2794.9906      0.16378604
       2795.8561      0.21119503
       2796.7216      0.17884905
       2797.5871      0.17942791
       2798.4526      0.16987604
       2799.3180      0.17689822
       2800.1835      0.19394944
       2801.0490      0.22317115
       2801.9145      0.13538045
       2802.7800      0.19553356
       2803.6455      0.23933087
       2804.5109      0.23883603
       2805.3764      0.20118093
       2806.2419      0.20782292
       2807.1074      0.25326356
       2807.9729      0.24339479
       2808.8384      0.26784197
       2809.7038      0.23438410
       2810.5693      0.23047686
       2811.4348      0.22655380
       2812.3003      0.18707743
       2813.1658      0.19113829
       2814.0313      0.19194436
       2814.8967      0.17379942
       2815.7622      0.14712057
       2816.6277      0.15215017
       2817.4932      0.11778343
       2818.3587      0.17590378
       2819.2242      0.20436724
       2820.0896      0.18214440
       2820.9551      0.16938479
       2821.8206      0.18077776
       2822.6861      0.15723926
       2823.5516      0.22678554
       2824.4171      0.21117723
       2825.2825      0.21374845
       2826.1480      0.21246594
       2827.0135      0.22454088
       2827.8790      0.16924220
       2828.7445      0.20097125
       2829.6100      0.19800348
       2830.4754      0.23222820
       2831.3409      0.26019457
       2832.2064      0.22161896
       2833.0719      0.20514021
       2833.9374      0.22478797
       2834.8029      0.21146794
       2835.6683      0.28492594
       2836.5338      0.22979556
       2837.3993      0.21557234
       2838.2648      0.29195730
       2839.1303      0.26925859
       2839.9958      0.26481259
       2840.8612      0.22178674
       2841.7267      0.24487857
       2842.5922      0.26756678
       2843.4577      0.28352373
       2844.3232      0.22257827
       2845.1887      0.19844014
       2846.0541      0.30907135
       2846.9196      0.18029436
       2847.7851      0.25337538
       2848.6506      0.17472119
       2849.5161     0.082150783
       2850.3816      0.15361992
       2851.2470      0.17805512
       2852.1125      0.23582690
       2852.9780      0.19435992
       2853.8435      0.14836107
       2854.7090      0.16293720
       2855.5745      0.13788991
       2856.4399      0.22254787
       2857.3054      0.19412530
       2858.1709      0.18664148
       2859.0364      0.22877623
       2859.9019      0.22922865
       2860.7674      0.12968208
       2861.6328      0.11883845
       2862.4983      0.15156344
       2863.3638      0.19393526
       2864.2293      0.23110004
       2865.0948      0.14696411
       2865.9603      0.19020196
       2866.8257      0.16789834
       2867.6912      0.15323205
       2868.5567      0.14961606
       2869.4222      0.12304059
       2870.2877      0.15985750
       2871.1532      0.14199523
       2872.0186      0.10765065
       2872.8841      0.15283648
       2873.7496      0.11492171
       2874.6151      0.16373666
       2875.4806      0.19065830
       2876.3460      0.17450214
       2877.2115      0.21048436
       2878.0770      0.22009498
       2878.9425      0.17219441
       2879.8080      0.12502256
       2880.6735      0.14366264
       2881.5389      0.20414436
       2882.4044      0.20653115
       2883.2699      0.15315076
       2884.1354      0.21393025
       2885.0009      0.13285200
       2885.8664      0.17543397
       2886.7318      0.14129706
       2887.5973     0.087332571
       2888.4628      0.13447559
       2889.3283      0.13478157
       2890.1938      0.15922049
       2891.0593      0.18529133
       2891.9247      0.19244246
       2892.7902      0.18024885
       2893.6557      0.17379994
       2894.5212      0.19131637
       2895.3867      0.20072691
       2896.2522      0.22031402
       2897.1176      0.22549953
       2897.9831      0.20824714
       2898.8486      0.19575101
       2899.7141      0.21213545
       2900.5796      0.23453442
       2901.4451      0.27666571
       2902.3105      0.34561252
       2903.1760      0.21619200
       2904.0415      0.17454707
       2904.9070      0.24483759
       2905.7725      0.26985032
       2906.6380      0.30468218
       2907.5034      0.19797468
       2908.3689      0.28968021
       2909.2344      0.25376484
       2910.0999      0.20129292
       2910.9654      0.14041573
       2911.8309      0.17494927
       2912.6963      0.17880763
       2913.5618      0.27150060
       2914.4273      0.23885376
       2915.2928      0.22622898
       2916.1583      0.19634640
       2917.0238      0.25184440
       2917.8892      0.22611132
       2918.7547      0.25714475
       2919.6202      0.16855140
       2920.4857      0.17207309
       2921.3512      0.15504450
       2922.2167      0.18142497
       2923.0821      0.15667050
       2923.9476      0.15184902
       2924.8131      0.20787712
       2925.6786      0.21201276
       2926.5441      0.23664595
       2927.4096      0.12847033
       2928.2750      0.11472718
       2929.1405      0.24182037
       2930.0060      0.27089386
       2930.8715      0.25841674
       2931.7370      0.23753809
       2932.6025      0.22075161
       2933.4679      0.22441680
       2934.3334      0.22783273
       2935.1989     0.073905374
       2936.0644      0.10103794
       2936.9299      0.14066124
       2937.7954      0.19561892
       2938.6608      0.22154640
       2939.5263      0.22524558
       2940.3918      0.17930765
       2941.2573      0.19964132
       2942.1228      0.17815554
       2942.9883      0.14839918
       2943.8537      0.15103619
       2944.7192      0.20589691
       2945.5847      0.25906364
       2946.4502      0.14765332
       2947.3157      0.17266950
       2948.1812      0.15761339
       2949.0466      0.21685135
       2949.9121      0.15161437
       2950.7776      0.18763944
       2951.6431      0.17129656
       2952.5086      0.24828627
       2953.3740      0.15733347
       2954.2395      0.14313575
       2955.1050      0.21262708
       2955.9705      0.16437531
       2956.8360      0.20536006
       2957.7015      0.22054340
       2958.5669      0.25437953
       2959.4324      0.12806700
       2960.2979      0.18452373
       2961.1634      0.20849746
       2962.0289      0.19226152
       2962.8944      0.22368422
       2963.7598      0.21965942
       2964.6253      0.26583498
       2965.4908      0.10203459
       2966.3563      0.19984855
       2967.2218      0.22052729
       2968.0873      0.20996458
       2968.9527      0.25807272
       2969.8182      0.23665595
       2970.6837      0.19322707
       2971.5492      0.24309460
       2972.4147      0.23362826
       2973.2802      0.19550935
       2974.1456      0.22255848
       2975.0111      0.24091196
       2975.8766      0.26124199
       2976.7421      0.33477398
       2977.6076      0.16017295
       2978.4731      0.15403049
       2979.3385      0.19685350
       2980.2040      0.18757455
       2981.0695      0.15152357
       2981.9350      0.18675120
       2982.8005      0.22739348
       2983.6660      0.17861214
       2984.5314      0.13651767
       2985.3969      0.21058510
       2986.2624      0.17106195
       2987.1279      0.11343654
       2987.9934      0.17530412
       2988.8589      0.17306932
       2989.7243      0.16380968
       2990.5898      0.18287514
       2991.4553      0.10982800
       2992.3208      0.16587844
       2993.1863     0.065897628
       2994.0518      0.16452411
       2994.9172      0.12325071
       2995.7827      0.12711735
       2996.6482      0.20328013
       2997.5137      0.17485140
       2998.3792      0.27534530
       2999.2447      0.15010010
       3000.1101      0.15525824
       3000.9756      0.16080790
       3001.8411      0.18769053
       3002.7066      0.21262720
       3003.5721      0.19883466
       3004.4376      0.19835833
       3005.3030      0.18323713
       3006.1685      0.11877004
       3007.0340      0.13611323
       3007.8995      0.16625070
       3008.7650      0.19393410
       3009.6305      0.16551270
       3010.4959      0.17473519
       3011.3614      0.23490296
       3012.2269      0.20976233
       3013.0924      0.20694606
       3013.9579      0.13102729
       3014.8234      0.19498703
       3015.6888      0.12790705
       3016.5543      0.17240724
       3017.4198      0.22159591
       3018.2853      0.18538453
       3019.1508      0.16547034
       3020.0163      0.18233265
       3020.8817      0.17168875
       3021.7472      0.19238354
       3022.6127      0.16528648
       3023.4782      0.15833891
       3024.3437      0.10478303
       3025.2092      0.16922461
       3026.0746      0.24864543
       3026.9401      0.26970708
       3027.8056      0.15415644
       3028.6711      0.18585655
       3029.5366      0.22236047
       3030.4020      0.22610374
       3031.2675      0.23260931
       3032.1330      0.19168349
       3032.9985      0.23642077
       3033.8640      0.16541149
       3034.7295      0.20381425
       3035.5949      0.13708031
       3036.4604      0.11399734
       3037.3259      0.15554318
       3038.1914      0.24468729
       3039.0569      0.24060715
       3039.9224      0.22223627
       3040.7878      0.20121830
       3041.6533      0.13124733
       3042.5188      0.15858841
       3043.3843      0.15893241
       3044.2498      0.19507499
       3045.1153      0.18392774
       3045.9807      0.25279274
       3046.8462      0.18709253
       3047.7117      0.14056091
       3048.5772      0.17380155
       3049.4427      0.22290928
       3050.3082      0.15158221
       3051.1736     0.065412264
       3052.0391      0.10904986
       3052.9046      0.11296889
       3053.7701     0.060330735
       3054.6356      0.11414374
       3055.5011      0.20477285
       3056.3665      0.23542294
       3057.2320      0.20932318
       3058.0975      0.18053484
       3058.9630      0.10552279
       3059.8285      0.14354042
       3060.6940      0.18434192
       3061.5594      0.15020823
       3062.4249      0.19609609
       3063.2904      0.15628919
       3064.1559      0.10257212
       3065.0214      0.16700788
       3065.8869      0.17580715
       3066.7523      0.17169211
       3067.6178      0.18420709
       3068.4833      0.18159023
       3069.3488      0.20443114
       3070.2143      0.20550297
       3071.0798      0.21143373
       3071.9452      0.16700750
       3072.8107      0.22899257
       3073.6762      0.18260438
       3074.5417      0.14935685
       3075.4072      0.13860232
       3076.2727      0.18319698
       3077.1381      0.13674683
       3078.0036      0.14737277
       3078.8691      0.13530471
       3079.7346      0.15015997
       3080.6001      0.18115668
       3081.4656      0.19723543
       3082.3310      0.14142433
       3083.1965      0.22801501
       3084.0620      0.25966007
       3084.9275      0.21735967
       3085.7930      0.21633234
       3086.6585      0.14924462
       3087.5239      0.18777598
       3088.3894      0.15184562
       3089.2549      0.15967765
       3090.1204      0.21369251
       3090.9859      0.18882368
       3091.8514      0.19574149
       3092.7168      0.14857022
       3093.5823      0.21131260
       3094.4478      0.18041281
       3095.3133      0.15311379
       3096.1788      0.16423970
       3097.0443      0.17719597
       3097.9097      0.20654430
       3098.7752      0.15220122
       3099.6407      0.10160509
       3100.5062      0.13110775
       3101.3717      0.16447842
       3102.2372      0.20025989
       3103.1026      0.21340415
       3103.9681      0.17478175
       3104.8336      0.17764456
       3105.6991      0.17566902
       3106.5646     0.080558220
       3107.4301      0.13937291
       3108.2955      0.12338145
       3109.1610      0.14595022
       3110.0265      0.15581542
       3110.8920      0.17026410
       3111.7575     0.098421641
       3112.6229      0.11707483
       3113.4884      0.13356861
       3114.3539      0.13868001
       3115.2194      0.11657304
       3116.0849      0.18392647
       3116.9504      0.13816001
       3117.8158      0.19548459
       3118.6813      0.21837898
       3119.5468      0.15302867
       3120.4123      0.14875699
       3121.2778     0.086564087
       3122.1433     0.066990293
       3123.0087      0.14301791
       3123.8742      0.14398132
       3124.7397      0.21640333
       3125.6052      0.17754040
       3126.4707      0.16199283
       3127.3362      0.14501866
       3128.2016     0.051507622
       3129.0671      0.18896229
       3129.9326      0.17655850
       3130.7981      0.15185814
       3131.6636      0.18685721
       3132.5291      0.14913254
       3133.3945      0.18423549
       3134.2600      0.14763113
       3135.1255      0.19039869
       3135.9910      0.20974776
       3136.8565      0.23388404
       3137.7220      0.25186577
       3138.5874      0.18674681
       3139.4529      0.22855229
       3140.3184      0.17059505
       3141.1839      0.15993035
       3142.0494      0.18964353
       3142.9149      0.17053028
       3143.7803      0.13465092
       3144.6458      0.12288853
       3145.5113      0.14025979
       3146.3768      0.12707101
       3147.2423      0.19856248
       3148.1078      0.19192254
       3148.9732      0.17257321
       3149.8387      0.17400280
       3150.7042      0.13108285
       3151.5697      0.17218203
       3152.4352      0.17012636
       3153.3007      0.12061978
       3154.1661      0.14280728
       3155.0316      0.17247869
       3155.8971      0.17167243
       3156.7626      0.19984915
       3157.6281      0.14813140
       3158.4936      0.16102773
       3159.3590     0.097616698
       3160.2245      0.17623001
       3161.0900      0.18858598
       3161.9555      0.17373645
       3162.8210      0.15912159
       3163.6865      0.20748606
       3164.5519      0.20044118
       3165.4174      0.13950980
       3166.2829      0.13736943
       3167.1484      0.19866418
       3168.0139     0.065753559
       3168.8794      0.13007956
       3169.7448     0.093716076
       3170.6103     0.092021093
       3171.4758      0.12608809
       3172.3413      0.15630334
       3173.2068      0.16542062
       3174.0723      0.13270524
       3174.9377      0.17528234
       3175.8032      0.12954077
       3176.6687      0.19902213
       3177.5342      0.20516894
       3178.3997      0.17893255
       3179.2652      0.15717064
       3180.1306      0.11127929
       3180.9961      0.13077768
       3181.8616     0.096351511
       3182.7271      0.11127311
       3183.5926      0.14729717
       3184.4581      0.17177262
       3185.3235      0.15382530
       3186.1890      0.11970621
       3187.0545      0.16276461
       3187.9200      0.16775470
       3188.7855      0.16504852
       3189.6509      0.15758880
       3190.5164      0.17397435
       3191.3819      0.17728805
       3192.2474      0.11514562
       3193.1129      0.17480437
       3193.9784      0.18582884
       3194.8438      0.11913088
       3195.7093      0.12922807
       3196.5748      0.18853265
       3197.4403      0.13497438
       3198.3058      0.18433155
       3199.1713     0.068770110
       3200.0367     0.096482825
       3200.9022      0.10245812
       3201.7677      0.24444125
       3202.6332      0.22286211
       3203.4987      0.16682480
       3204.3642      0.18914680
       3205.2296      0.20616901
       3206.0951      0.17200911
       3206.9606      0.18411710
       3207.8261      0.10251233
       3208.6916      0.19528402
       3209.5571      0.23686974
       3210.4225      0.23051390
       3211.2880      0.17925185
       3212.1535      0.14703985
       3213.0190     0.098418415
       3213.8845      0.17551644
       3214.7500     0.065056395
       3215.6154      0.17058621
       3216.4809      0.16369691
       3217.3464      0.21730832
       3218.2119      0.22358295
       3219.0774      0.23188010
       3219.9429      0.21608708
       3220.8083      0.12759525
       3221.6738      0.26680006
       3222.5393      0.13333948
       3223.4048      0.28263814
       3224.2703      0.17862165
       3225.1358      0.18438058
       3226.0012      0.17019277
       3226.8667      0.22644297
       3227.7322      0.15813948
       3228.5977      0.22524908
       3229.4632      0.18374487
       3230.3287      0.21865723
       3231.1941      0.23457518
       3232.0596      0.19105284
       3232.9251      0.16031314
       3233.7906      0.17008493
       3234.6561      0.22451357
       3235.5216      0.16258643
       3236.3870      0.11810203
       3237.2525      0.12393584
       3238.1180      0.14244599
       3238.9835     0.098743287
       3239.8490      0.15548107
       3240.7145      0.18121802
       3241.5799      0.11959728
       3242.4454      0.12648450
       3243.3109      0.14610625
       3244.1764      0.22842776
       3245.0419      0.18279815
       3245.9074      0.20868803
       3246.7728      0.17949093
       3247.6383      0.17923875
       3248.5038      0.20164295
       3249.3693      0.15074900
       3250.2348      0.25391159
       3251.1003      0.19717466
       3251.9657     0.066414167
       3252.8312      0.15325183
       3253.6967      0.25460783
       3254.5622      0.20443171
       3255.4277      0.21410788
       3256.2932      0.14058680
       3257.1586     0.097095013
       3258.0241      0.16943099
       3258.8896      0.28367165
       3259.7551      0.19465708
       3260.6206      0.18934755
       3261.4861      0.12045072
       3262.3515      0.14383109
       3263.2170      0.20765249
       3264.0825      0.14865895
       3264.9480      0.26648970
       3265.8135      0.17445965
       3266.6790      0.18628805
       3267.5444      0.17964902
       3268.4099      0.14655141
       3269.2754      0.25306938
       3270.1409     0.084900940
       3271.0064      0.18559622
       3271.8718      0.27686267
       3272.7373      0.25127659
       3273.6028      0.21048838
       3274.4683      0.21342980
       3275.3338      0.25207005
       3276.1993      0.21909542
       3277.0647      0.10350281
       3277.9302     0.097096887
       3278.7957      0.14555453
       3279.6612      0.19939023
       3280.5267      0.15106774
       3281.3922      0.22672592
       3282.2576      0.20077921
       3283.1231      0.15643952
       3283.9886      0.12605813
       3284.8541      0.15177819
       3285.7196      0.13875486
       3286.5851      0.15739783
       3287.4505      0.27519274
       3288.3160      0.12151574
       3289.1815      0.10295326
       3290.0470     0.095151531
       3290.9125      0.19297008
       3291.7780      0.21042665
       3292.6434      0.16731554
       3293.5089      0.19170211
       3294.3744      0.17227376
       3295.2399     0.075862852
       3296.1054      0.17184576
       3296.9709      0.17895759
       3297.8363      0.17853746
       3298.7018      0.22204344
       3299.5673      0.23308739
       3300.4328      0.17659809
       3301.2983      0.18309836
       3302.1638      0.26359917
       3303.0292      0.22857602
       3303.8947      0.17343905
       3304.7602      0.17433405
       3305.6257      0.20630374
       3306.4912      0.21833749
       3307.3567      0.19167036
       3308.2221      0.17340623
       3309.0876      0.31692054
       3309.9531      0.20834754
       3310.8186      0.19924470
       3311.6841      0.15770408
       3312.5496      0.11181251
       3313.4150      0.23813989
       3314.2805      0.13684185
       3315.1460      0.24765625
       3316.0115      0.25454865
       3316.8770      0.25530391
       3317.7425      0.13650001
       3318.6079      0.19724066
       3319.4734      0.26333572
       3320.3389      0.30329455
       3321.2044      0.24001172
       3322.0699      0.26884810
       3322.9354      0.24055550
       3323.8008      0.18160120
       3324.6663      0.10485755
       3325.5318      0.22383701
       3326.3973      0.23429618
       3327.2628      0.10148925
       3328.1283      0.19733702
       3328.9937      0.22906034
       3329.8592      0.14214531
       3330.7247      0.11284427
       3331.5902      0.20270511
       3332.4557      0.13808791
       3333.3212      0.10387583
       3334.1866      0.12155807
       3335.0521     0.069556498
       3335.9176      0.20735265
       3336.7831      0.23763053
       3337.6486      0.14505433
       3338.5141      0.19063298
       3339.3795      0.21404098
       3340.2450      0.21522219
       3341.1105      0.21992681
       3341.9760      0.26471162
       3342.8415      0.19936471
       3343.7070      0.15084079
       3344.5724      0.21810235
       3345.4379      0.20729662
       3346.3034      0.19002483
       3347.1689      0.31252177
       3348.0344      0.17412432
       3348.8998      0.12028910
       3349.7653      0.20725165
       3350.6308      0.18581074
       3351.4963      0.27633166
       3352.3618      0.13340777
       3353.2273      0.13098507
       3354.0927      0.12942237
       3354.9582      0.11582602
       3355.8237      0.13671005
       3356.6892      0.18392123
       3357.5547      0.18220833
       3358.4202      0.13026373
       3359.2856      0.21852933
       3360.1511      0.11068657
       3361.0166      0.17548507
       3361.8821      0.25466426
       3362.7476     0.090720770
       3363.6131      0.15566964
       3364.4785     0.051738025
       3365.3440      0.10517177
       3366.2095      0.11039629
       3367.0750      0.15744949
       3367.9405      0.27580438
       3368.8060      0.15779363
       3369.6714      0.21811541
       3370.5369      0.25077309
       3371.4024      0.19334818
       3372.2679     0.095226661
       3373.1334      0.23664727
       3373.9989      0.20235505
       3374.8643      0.12477128
       3375.7298      0.17702339
       3376.5953     0.073191496
       3377.4608      0.12357562
       3378.3263      0.19077814
       3379.1918     0.053965579
       3380.0572      0.16020050
       3380.9227      0.19598639
       3381.7882      0.18525339
       3382.6537      0.19867825
       3383.5192      0.22552818
       3384.3847      0.17608474
       3385.2501      0.18805403
       3386.1156      0.10692076
       3386.9811      0.24691767
       3387.8466      0.29358562
       3388.7121      0.13040359
       3389.5776      0.16911177
       3390.4430      0.26526851
       3391.3085      0.12061175
       3392.1740      0.18743507
       3393.0395      0.14847832
       3393.9050      0.31562770
       3394.7705      0.22633113
       3395.6359      0.21962047
       3396.5014      0.18553278
       3397.3669      0.25582769
       3398.2324      0.23828913
       3399.0979      0.26040309
       3399.9634      0.15546608
       3400.8288      0.15352625
       3401.6943      0.15254121
       3402.5598      0.22268798
       3403.4253      0.28571455
       3404.2908      0.19853045
       3405.1563      0.23965678
       3406.0217      0.24625550
       3406.8872      0.19130573
       3407.7527      0.17487555
       3408.6182      0.31722575
       3409.4837      0.27171509
       3410.3492      0.23588494
       3411.2146      0.26015736
       3412.0801      0.32540291
       3412.9456      0.20537307
       3413.8111      0.20732179
       3414.6766      0.22841611
       3415.5421      0.24325542
       3416.4075      0.17103989
       3417.2730      0.21417097
       3418.1385      0.15789834
       3419.0040      0.13360422
       3419.8695      0.35148293
       3420.7350      0.13948356
       3421.6004      0.19666294
       3422.4659      0.26552637
       3423.3314      0.26586288
       3424.1969      0.23555197
       3425.0624      0.12199921
       3425.9279      0.22983836
       3426.7933      0.14199580
       3427.6588      0.13705820
       3428.5243      0.24085453
       3429.3898      0.27335803
       3430.2553      0.13018281
       3431.1207      0.26591920
       3431.9862      0.28161330
       3432.8517      0.40512769
       3433.7172      0.22162934
       3434.5827      0.17740541
       3435.4482      0.14716013
       3436.3136      0.18574665
       3437.1791      0.29582546
       3438.0446      0.24121561
       3438.9101      0.21376457
       3439.7756      0.16064368
       3440.6411      0.28256169
       3441.5065      0.26964545
       3442.3720      0.18966730
       3443.2375      0.24254489
       3444.1030     0.077023089
       3444.9685      0.14845208
       3445.8340      0.17633019
       3446.6994      0.16921544
       3447.5649      0.23346221
       3448.4304      0.18843054
       3449.2959      0.21541982
       3450.1614      0.20940831
       3451.0269      0.17524361
       3451.8923      0.19370759
       3452.7578      0.23084035
       3453.6233      0.26145800
       3454.4888      0.22355189
       3455.3543      0.11759784
       3456.2198      0.19983690
       3457.0852      0.17093164
       3457.9507      0.18118380
       3458.8162      0.27622516
       3459.6817      0.17348070
       3460.5472      0.18782207
       3461.4127      0.25041228
       3462.2781      0.13570375
       3463.1436      0.28246410
       3464.0091      0.40026539
       3464.8746      0.31059318
       3465.7401      0.28871985
       3466.6056      0.18294744
       3467.4710      0.12654303
       3468.3365      0.26912877
       3469.2020      0.24206761
       3470.0675      0.18285820
       3470.9330      0.32591450
       3471.7985      0.23506691
       3472.6639      0.26385951
       3473.5294      0.30783391
       3474.3949      0.14525439
       3475.2604      0.23355635
       3476.1259      0.31074834
       3476.9914      0.21045297
       3477.8568      0.25951090
       3478.7223      0.24208406
       3479.5878      0.16832779
       3480.4533      0.18389203
       3481.3188      0.13986708
       3482.1843      0.22806932
       3483.0497      0.14826142
       3483.9152      0.18661488
       3484.7807      0.15061652
       3485.6462      0.16959574
       3486.5117      0.12894940
       3487.3772      0.14785645
       3488.2426      0.27733649
       3489.1081      0.25003132
       3489.9736      0.17719344
       3490.8391      0.21940555
       3491.7046      0.25461790
       3492.5701      0.23903904
       3493.4355      0.11695718
       3494.3010      0.15623756
       3495.1665      0.20831915
       3496.0320      0.27840597
       3496.8975      0.24625135
       3497.7630      0.23060517
       3498.6284      0.23878131
       3499.4939      0.16107949
       3500.3594      0.28256507
       3501.2249      0.20864812
       3502.0904      0.15338880
       3502.9559     0.079647677
       3503.8213      0.28802243
       3504.6868      0.30286545
       3505.5523      0.13571761
       3506.4178      0.35155097
       3507.2833      0.22301052
       3508.1487      0.13153653
       3509.0142      0.29900611
       3509.8797      0.21841857
       3510.7452      0.32263067
       3511.6107      0.29171666
       3512.4762      0.22774392
       3513.3416      0.18449621
       3514.2071      0.17296072
       3515.0726      0.31821618
       3515.9381      0.16432602
       3516.8036      0.22321923
       3517.6691      0.26358863
       3518.5345      0.24902876
       3519.4000      0.17981598
       3520.2655      0.33692744
       3521.1310      0.21232189
       3521.9965      0.19786508
       3522.8620      0.23647555
       3523.7274      0.24515718
       3524.5929      0.26279105
       3525.4584      0.19942624
       3526.3239      0.31574306
       3527.1894      0.22273516
       3528.0549      0.20863638
       3528.9203      0.23585436
       3529.7858      0.23300095
       3530.6513      0.16718530
       3531.5168      0.22256417
       3532.3823      0.25559488
       3533.2478      0.25882933
       3534.1132      0.23333317
       3534.9787      0.18196700
       3535.8442      0.20254711
       3536.7097      0.15344689
       3537.5752      0.16557890
       3538.4407      0.18151303
       3539.3061      0.28502050
       3540.1716      0.35653654
       3541.0371      0.32534798
       3541.9026      0.27770236
       3542.7681      0.18070462
       3543.6336      0.28707206
       3544.4990      0.32386684
       3545.3645      0.25125739
       3546.2300      0.15802723
       3547.0955      0.13583444
       3547.9610      0.13132875
       3548.8265      0.24808372
       3549.6919      0.32625074
       3550.5574      0.29349457
       3551.4229      0.28060877
       3552.2884      0.24783179
       3553.1539      0.29103945
       3554.0194      0.32348412
       3554.8848      0.26784115
       3555.7503      0.10184051
       3556.6158      0.27156329
       3557.4813      0.30355420
       3558.3468      0.33624489
       3559.2123      0.25338335
       3560.0777      0.24162841
       3560.9432      0.25440465
       3561.8087      0.28425304
       3562.6742      0.24550328
       3563.5397      0.23688157
       3564.4052      0.22917052
       3565.2706      0.29254130
       3566.1361      0.23057969
       3567.0016      0.25800100
       3567.8671      0.29472299
       3568.7326      0.26329421
       3569.5981      0.25724571
       3570.4635      0.22711705
       3571.3290     0.046271436
       3572.1945      0.17392214
       3573.0600      0.19259767
       3573.9255      0.20099752
       3574.7910      0.13718925
       3575.6564      0.23502908
       3576.5219      0.17338242
       3577.3874      0.22838938
       3578.2529      0.23566900
       3579.1184      0.18139070
       3579.9839      0.21087846
       3580.8493      0.28418446
       3581.7148      0.28136807
       3582.5803      0.29342424
       3583.4458      0.22340849
       3584.3113      0.35280109
       3585.1767      0.24984980
       3586.0422      0.14056336
       3586.9077      0.16395646
       3587.7732      0.22093424
       3588.6387      0.19803619
       3589.5042      0.18465726
       3590.3696      0.18459793
       3591.2351      0.27175168
       3592.1006      0.23164880
       3592.9661      0.32563118
       3593.8316      0.20721860
       3594.6971      0.25223463
       3595.5625      0.30070650
       3596.4280      0.22216843
       3597.2935      0.13461838
       3598.1590      0.19323062
       3599.0245      0.17281855
       3599.8900      0.20475381
       3600.7554      0.22603231
       3601.6209      0.21026934
       3602.4864      0.29922963
       3603.3519      0.27365885
       3604.2174      0.23143612
       3605.0829      0.34148386
       3605.9483      0.30941066
       3606.8138      0.25639973
       3607.6793      0.28143466
       3608.5448      0.20242555
       3609.4103      0.27241039
       3610.2758      0.27630781
       3611.1412      0.21505785
       3612.0067      0.27125479
       3612.8722      0.18932612
       3613.7377      0.26213131
       3614.6032      0.22700445
       3615.4687      0.26751953
       3616.3341      0.34689251
       3617.1996      0.26066710
       3618.0651      0.23479850
       3618.9306      0.19120749
       3619.7961      0.25546857
       3620.6616      0.28182126
       3621.5270      0.29989654
       3622.3925      0.27772436
       3623.2580      0.26637720
       3624.1235      0.22761075
       3624.9890      0.20547426
       3625.8545      0.11868941
       3626.7199      0.27871332
       3627.5854      0.25141438
       3628.4509      0.35655192
       3629.3164      0.33467108
       3630.1819      0.28925596
       3631.0474      0.29215647
       3631.9128      0.28872470
       3632.7783      0.33081978
       3633.6438      0.26449215
       3634.5093      0.24161570
       3635.3748      0.19285631
       3636.2403      0.37781639
       3637.1057      0.32499686
       3637.9712      0.24910613
       3638.8367      0.25841636
       3639.7022      0.24169548
       3640.5677      0.22885733
       3641.4332      0.21109634
       3642.2986      0.17094114
       3643.1641      0.28521062
       3644.0296      0.32328553
       3644.8951      0.16837253
       3645.7606      0.18607220
       3646.6261      0.20972113
       3647.4915      0.16345242
       3648.3570      0.19431205
       3649.2225      0.22820603
       3650.0880      0.32360996
       3650.9535      0.29587436
       3651.8190      0.22909868
       3652.6844      0.20362045
       3653.5499      0.30653720
       3654.4154      0.27453985
       3655.2809      0.21218899
       3656.1464      0.27446311
       3657.0119      0.32670432
       3657.8773      0.27954860
       3658.7428      0.17484995
       3659.6083      0.27656149
       3660.4738      0.22914508
       3661.3393      0.32001619
       3662.2048      0.25820254
       3663.0702      0.22828415
       3663.9357      0.23735595
       3664.8012      0.26937075
       3665.6667      0.21224118
       3666.5322      0.23527284
       3667.3976      0.17636502
       3668.2631      0.25976096
       3669.1286      0.23768662
       3669.9941      0.23991024
       3670.8596      0.26556298
       3671.7251      0.20770722
       3672.5905      0.35330613
       3673.4560      0.32000467
       3674.3215      0.15250478
       3675.1870      0.28907160
       3676.0525      0.31874345
       3676.9180      0.30599108
       3677.7834      0.27021030
       3678.6489      0.34598729
       3679.5144      0.24585068
       3680.3799      0.25191596
       3681.2454      0.19960181
       3682.1109      0.12803657
       3682.9763      0.22330524
       3683.8418      0.20152067
       3684.7073      0.37846109
       3685.5728      0.25228703
       3686.4383      0.28190143
       3687.3038      0.24379425
       3688.1692      0.25123119
       3689.0347      0.26610371
       3689.9002      0.29606379
       3690.7657      0.22278244
       3691.6312      0.30120458
       3692.4967      0.22582000
       3693.3621      0.29685760
       3694.2276      0.37133256
       3695.0931      0.32540180
       3695.9586      0.29805695
       3696.8241      0.35438641
       3697.6896      0.26107033
       3698.5550      0.26113176
       3699.4205      0.24027099
       3700.2860      0.26212935
       3701.1515      0.27821671
       3702.0170      0.32561106
       3702.8825      0.25181037
       3703.7479      0.19004446
       3704.6134      0.32684048
       3705.4789      0.27470776
       3706.3444      0.34082571
       3707.2099      0.29215661
       3708.0754      0.36889305
       3708.9408      0.30274588
       3709.8063      0.29831705
       3710.6718      0.26253436
       3711.5373      0.30407576
       3712.4028      0.26176435
       3713.2683      0.37320577
       3714.1337      0.32994265
       3714.9992      0.21066251
       3715.8647      0.28687726
       3716.7302      0.28656447
       3717.5957      0.31611470
       3718.4612      0.33934192
       3719.3266      0.23108603
       3720.1921      0.28680521
       3721.0576      0.32056227
       3721.9231      0.40332680
       3722.7886      0.36676164
       3723.6541      0.47593845
       3724.5195      0.56331495
       3725.3850      0.66188441
       3726.2505      0.77740977
       3727.1160      0.73601527
       3727.9815      0.72242999
       3728.8470      0.67966796
       3729.7124      0.61869817
       3730.5779      0.42892072
       3731.4434      0.47206299
       3732.3089      0.38235553
       3733.1744      0.34752869
       3734.0399      0.31085244
       3734.9053      0.21055579
       3735.7708      0.17545268
       3736.6363      0.26614543
       3737.5018      0.31524692
       3738.3673      0.28758420
       3739.2328      0.30784406
       3740.0982      0.24172964
       3740.9637      0.37982285
       3741.8292      0.32131459
       3742.6947      0.33681503
       3743.5602      0.21626981
       3744.4256      0.33350398
       3745.2911      0.20769677
       3746.1566      0.22715762
       3747.0221      0.23015694
       3747.8876      0.21471023
       3748.7531      0.36528223
       3749.6185      0.22348729
       3750.4840      0.29703410
       3751.3495      0.18172402
       3752.2150      0.25935868
       3753.0805      0.32740120
       3753.9460      0.28970780
       3754.8114      0.32411063
       3755.6769      0.29160249
       3756.5424      0.39303461
       3757.4079      0.39364059
       3758.2734      0.38797779
       3759.1389      0.42091768
       3760.0043      0.32823088
       3760.8698      0.35862819
       3761.7353      0.36337545
       3762.6008      0.40692490
       3763.4663      0.32760437
       3764.3318      0.35239428
       3765.1972      0.32328227
       3766.0627      0.35250354
       3766.9282      0.28250149
       3767.7937      0.34493669
       3768.6592      0.21406446
       3769.5247      0.30045724
       3770.3901      0.29806771
       3771.2556      0.31641061
       3772.1211      0.30110024
       3772.9866      0.44560461
       3773.8521      0.33150227
       3774.7176      0.35425021
       3775.5830      0.41059038
       3776.4485      0.29072623
       3777.3140      0.51237779
       3778.1795      0.41941628
       3779.0450      0.31575953
       3779.9105      0.39271657
       3780.7759      0.50828007
       3781.6414      0.36125820
       3782.5069      0.26295884
       3783.3724      0.34949961
       3784.2379      0.34203318
       3785.1034      0.34717984
       3785.9688      0.40734339
       3786.8343      0.43346051
       3787.6998      0.41003120
       3788.5653      0.38529015
       3789.4308      0.38223461
       3790.2963      0.37480455
       3791.1617      0.35815201
       3792.0272      0.33786461
       3792.8927      0.29515969
       3793.7582      0.23774642
       3794.6237      0.23891626
       3795.4892      0.32488365
       3796.3546      0.36300967
       3797.2201      0.29175388
       3798.0856      0.28165773
       3798.9511      0.26248825
       3799.8166      0.30855533
       3800.6821      0.35480730
       3801.5475      0.51625936
       3802.4130      0.44322754
       3803.2785      0.34186583
       3804.1440      0.47454305
       3805.0095      0.48063835
       3805.8750      0.44110545
       3806.7404      0.31588249
       3807.6059      0.49506719
       3808.4714      0.40976356
       3809.3369      0.42873866
       3810.2024      0.35632195
       3811.0679      0.43019379
       3811.9333      0.36583427
       3812.7988      0.42460259
       3813.6643      0.42391476
       3814.5298      0.39006237
       3815.3953      0.39623165
       3816.2608      0.38318935
       3817.1262      0.31755065
       3817.9917      0.39667629
       3818.8572      0.35023336
       3819.7227      0.34520006
       3820.5882      0.23422952
       3821.4537      0.35323883
       3822.3191      0.28851243
       3823.1846      0.17669962
       3824.0501      0.25963790
       3824.9156      0.20825565
       3825.7811      0.39849666
       3826.6465      0.36161061
       3827.5120      0.32257995
       3828.3775      0.25571759
       3829.2430      0.29693284
       3830.1085      0.24017857
       3830.9740      0.21772423
       3831.8394      0.24264817
       3832.7049      0.26383537
       3833.5704      0.31293637
       3834.4359      0.31086916
       3835.3014      0.30599413
       3836.1669      0.31521113
       3837.0323      0.32147116
       3837.8978      0.20495486
       3838.7633      0.34247819
       3839.6288      0.35855619
       3840.4943      0.39096559
       3841.3598      0.31920140
       3842.2252      0.33118157
       3843.0907      0.29212755
       3843.9562      0.25544865
       3844.8217      0.37117096
       3845.6872      0.47703678
       3846.5527      0.33157655
       3847.4181      0.46494021
       3848.2836      0.44488377
       3849.1491      0.50290264
       3850.0146      0.43588035
       3850.8801      0.43850677
       3851.7456      0.33869372
       3852.6110      0.34931432
       3853.4765      0.43787057
       3854.3420      0.51157998
       3855.2075      0.27038133
       3856.0730      0.33350784
       3856.9385      0.50115101
       3857.8039      0.50296889
       3858.6694      0.50866577
       3859.5349      0.37999943
       3860.4004      0.36797391
       3861.2659      0.39682626
       3862.1314      0.37021602
       3862.9968      0.44295939
       3863.8623      0.49405324
       3864.7278      0.32774745
       3865.5933      0.38553938
       3866.4588      0.44760386
       3867.3243      0.50348469
       3868.1897      0.40278803
       3869.0552      0.36954188
       3869.9207      0.37890189
       3870.7862      0.34615796
       3871.6517      0.41264535
       3872.5172      0.49148325
       3873.3826      0.39808270
       3874.2481      0.34767149
       3875.1136      0.36995412
       3875.9791      0.39053494
       3876.8446      0.44723098
       3877.7101      0.36403067
       3878.5755      0.30277149
       3879.4410      0.33014657
       3880.3065      0.30478707
       3881.1720      0.32217102
       3882.0375      0.41550728
       3882.9030      0.36894839
       3883.7684      0.41398839
       3884.6339      0.28717394
       3885.4994      0.25064191
       3886.3649      0.26478998
       3887.2304      0.32877575
       3888.0959      0.34952919
       3888.9613      0.29076186
       3889.8268      0.37709764
       3890.6923      0.38853835
       3891.5578      0.40831528
       3892.4233      0.37690184
       3893.2888      0.35312660
       3894.1542      0.38262099
       3895.0197      0.46798634
       3895.8852      0.43843690
       3896.7507      0.35160668
       3897.6162      0.31997357
       3898.4817      0.37113170
       3899.3471      0.40392787
       3900.2126      0.40684800
       3901.0781      0.34253260
       3901.9436      0.33295980
       3902.8091      0.47114271
       3903.6745      0.46714221
       3904.5400      0.44983181
       3905.4055      0.42449416
       3906.2710      0.50158075
       3907.1365      0.44422108
       3908.0020      0.39026991
       3908.8674      0.43550589
       3909.7329      0.50345373
       3910.5984      0.46199079
       3911.4639      0.43986334
       3912.3294      0.41303924
       3913.1949      0.43363706
       3914.0603      0.41801821
       3914.9258      0.49213933
       3915.7913      0.40010049
       3916.6568      0.35945323
       3917.5223      0.34559504
       3918.3878      0.45730879
       3919.2532      0.46017939
       3920.1187      0.40581175
       3920.9842      0.32847398
       3921.8497      0.31762680
       3922.7152      0.35169088
       3923.5807      0.35576636
       3924.4461      0.34583304
       3925.3116      0.29461621
       3926.1771      0.23601887
       3927.0426      0.35133157
       3927.9081      0.35911510
       3928.7736      0.41335320
       3929.6390      0.32039540
       3930.5045      0.30005415
       3931.3700      0.34603465
       3932.2355      0.42148120
       3933.1010      0.31253171
       3933.9665      0.39597029
       3934.8319      0.35712912
       3935.6974      0.38104295
       3936.5629      0.43985307
       3937.4284      0.41844669
       3938.2939      0.42738857
       3939.1594      0.44697168
       3940.0248      0.34429007
       3940.8903      0.46699474
       3941.7558      0.45554854
       3942.6213      0.39328006
       3943.4868      0.42116446
       3944.3523      0.47135210
       3945.2177      0.48446752
       3946.0832      0.42178701
       3946.9487      0.45210949
       3947.8142      0.50548673
       3948.6797      0.49735286
       3949.5452      0.46469049
       3950.4106      0.51142609
       3951.2761      0.32592269
       3952.1416      0.42645854
       3953.0071      0.35612719
       3953.8726      0.40150859
       3954.7381      0.33663208
       3955.6035      0.34616917
       3956.4690      0.34849286
       3957.3345      0.29145405
       3958.2000      0.32162524
       3959.0655      0.26266943
       3959.9310      0.20697435
       3960.7964      0.25831221
       3961.6619      0.29196541
       3962.5274      0.24898672
       3963.3929      0.21044305
       3964.2584      0.37395278
       3965.1239      0.38739831
       3965.9893      0.40502695
       3966.8548      0.37461761
       3967.7203      0.30455285
       3968.5858      0.33183449
       3969.4513      0.39594136
       3970.3168      0.36590777
       3971.1822      0.38730634
       3972.0477      0.38878401
       3972.9132      0.37729221
       3973.7787      0.46022649
       3974.6442      0.40966776
       3975.5097      0.43907930
       3976.3751      0.35471476
       3977.2406      0.40483807
       3978.1061      0.55253726
       3978.9716      0.41512237
       3979.8371      0.41871119
       3980.7026      0.48098751
       3981.5680      0.51639909
       3982.4335      0.47248540
       3983.2990      0.38273319
       3984.1645      0.48789515
       3985.0300      0.41545234
       3985.8954      0.46323112
       3986.7609      0.47171791
       3987.6264      0.49302963
       3988.4919      0.44005874
       3989.3574      0.50211590
       3990.2229      0.49921107
       3991.0883      0.51810171
       3991.9538      0.49553337
       3992.8193      0.58087572
       3993.6848      0.61513974
       3994.5503      0.46120207
       3995.4158      0.43431829
       3996.2812      0.43217999
       3997.1467      0.40097960
       3998.0122      0.55399885
       3998.8777      0.49477752
       3999.7432      0.38328663
       4000.6087      0.46195631
       4001.4741      0.50208499
       4002.3396      0.51829761
       4003.2051      0.42981446
       4004.0706      0.50936965
       4004.9361      0.55032147
       4005.8016      0.48980123
       4006.6670      0.50304857
       4007.5325      0.50652760
       4008.3980      0.52405366
       4009.2635      0.47790014
       4010.1290      0.45420071
       4010.9945      0.51069582
       4011.8599      0.50194109
       4012.7254      0.44061051
       4013.5909      0.45227632
       4014.4564      0.51054690
       4015.3219      0.56519050
       4016.1874      0.49657005
       4017.0528      0.43771281
       4017.9183      0.44679316
       4018.7838      0.49718742
       4019.6493      0.51383427
       4020.5148      0.44188841
       4021.3803      0.36342409
       4022.2457      0.49010061
       4023.1112      0.52023035
       4023.9767      0.49320994
       4024.8422      0.49258176
       4025.7077      0.51701544
       4026.5732      0.48723520
       4027.4386      0.55060650
       4028.3041      0.37714416
       4029.1696      0.45587765
       4030.0351      0.45501047
       4030.9006      0.42867859
       4031.7661      0.41114088
       4032.6315      0.40669645
       4033.4970      0.38237379
       4034.3625      0.46414562
       4035.2280      0.51164385
       4036.0935      0.52310396
       4036.9590      0.53788625
       4037.8244      0.48516260
       4038.6899      0.48304458
       4039.5554      0.51463797
       4040.4209      0.50212182
       4041.2864      0.54986815
       4042.1519      0.50294388
       4043.0173      0.51218467
       4043.8828      0.49470664
       4044.7483      0.50240086
       4045.6138      0.47573722
       4046.4793      0.40040825
       4047.3448      0.48469923
       4048.2102      0.55293523
       4049.0757      0.48825948
       4049.9412      0.47655288
       4050.8067      0.52328060
       4051.6722      0.51960915
       4052.5377      0.48670128
       4053.4031      0.54294849
       4054.2686      0.53334213
       4055.1341      0.51786045
       4055.9996      0.45343061
       4056.8651      0.34310411
       4057.7306      0.36025397
       4058.5960      0.49597735
       4059.4615      0.53907328
       4060.3270      0.44313968
       4061.1925      0.54846684
       4062.0580      0.57163305
       4062.9234      0.57463138
       4063.7889      0.46849434
       4064.6544      0.52277926
       4065.5199      0.58297895
       4066.3854      0.58612208
       4067.2509      0.47534944
       4068.1163      0.41009243
       4068.9818      0.44627171
       4069.8473      0.48236589
       4070.7128      0.44722941
       4071.5783      0.53156575
       4072.4438      0.57134943
       4073.3092      0.60114742
       4074.1747      0.50412222
       4075.0402      0.53856838
       4075.9057      0.52158101
       4076.7712      0.46866000
       4077.6367      0.45721476
       4078.5021      0.52086969
       4079.3676      0.44281148
       4080.2331      0.47522073
       4081.0986      0.47652300
       4081.9641      0.46481297
       4082.8296      0.46464568
       4083.6950      0.36608411
       4084.5605      0.35232668
       4085.4260      0.48749379
       4086.2915      0.44899907
       4087.1570      0.42605665
       4088.0225      0.34962709
       4088.8879      0.40382855
       4089.7534      0.34570604
       4090.6189      0.33952925
       4091.4844      0.39677702
       4092.3499      0.39068268
       4093.2154      0.43988215
       4094.0808      0.43236233
       4094.9463      0.37648068
       4095.8118      0.42316653
       4096.6773      0.42473656
       4097.5428      0.42630089
       4098.4083      0.41470224
       4099.2737      0.44258004
       4100.1392      0.51274561
       4101.0047      0.59018108
       4101.8702      0.58102477
       4102.7357      0.46011335
       4103.6012      0.50681041
       4104.4666      0.56945031
       4105.3321      0.51825870
       4106.1976      0.45146434
       4107.0631      0.44118111
       4107.9286      0.44702816
       4108.7941      0.49447307
       4109.6595      0.48804466
       4110.5250      0.53513874
       4111.3905      0.43435798
       4112.2560      0.35636040
       4113.1215      0.37911524
       4113.9870      0.40655095
       4114.8524      0.44143743
       4115.7179      0.48579498
       4116.5834      0.51275547
       4117.4489      0.47877052
       4118.3144      0.48372363
       4119.1799      0.51704237
       4120.0453      0.46902366
       4120.9108      0.47931794
       4121.7763      0.49814119
       4122.6418      0.56116546
       4123.5073      0.58554879
       4124.3728      0.48795250
       4125.2382      0.56499994
       4126.1037      0.51000161
       4126.9692      0.55468919
       4127.8347      0.59876417
       4128.7002      0.56569456
       4129.5657      0.45092749
       4130.4311      0.40710614
       4131.2966      0.44823247
       4132.1621      0.47191718
       4133.0276      0.51900713
       4133.8931      0.45679087
       4134.7586      0.52393756
       4135.6240      0.52134343
       4136.4895      0.44201923
       4137.3550      0.47864319
       4138.2205      0.50113704
       4139.0860      0.47294165
       4139.9514      0.46289717
       4140.8169      0.46564610
       4141.6824      0.46362990
       4142.5479      0.50814255
       4143.4134      0.47353470
       4144.2789      0.47849078
       4145.1443      0.42550062
       4146.0098      0.44537291
       4146.8753      0.50621895
       4147.7408      0.54828548
       4148.6063      0.45457389
       4149.4718      0.53108338
       4150.3372      0.50493520
       4151.2027      0.54734508
       4152.0682      0.51360864
       4152.9337      0.46995873
       4153.7992      0.54991635
       4154.6647      0.51636277
       4155.5301      0.55410462
       4156.3956      0.54482949
       4157.2611      0.51747884
       4158.1266      0.52243177
       4158.9921      0.53451560
       4159.8576      0.49525015
       4160.7230      0.48822906
       4161.5885      0.49811894
       4162.4540      0.50034170
       4163.3195      0.57968533
       4164.1850      0.53371850
       4165.0505      0.50831401
       4165.9159      0.55680114
       4166.7814      0.54252827
       4167.6469      0.49481760
       4168.5124      0.55481869
       4169.3779      0.52410518
       4170.2434      0.51506631
       4171.1088      0.59710138
       4171.9743      0.57702280
       4172.8398      0.55060427
       4173.7053      0.47458601
       4174.5708      0.55435389
       4175.4363      0.51751089
       4176.3017      0.51309024
       4177.1672      0.50775643
       4178.0327      0.49056768
       4178.8982      0.44468587
       4179.7637      0.55639682
       4180.6292      0.52163866
       4181.4946      0.47371690
       4182.3601      0.47367973
       4183.2256      0.48199665
       4184.0911      0.48770907
       4184.9566      0.53736205
       4185.8221      0.55832974
       4186.6875      0.46424003
       4187.5530      0.52202806
       4188.4185      0.53677553
       4189.2840      0.53166509
       4190.1495      0.60626672
       4191.0150      0.49174225
       4191.8804      0.50620072
       4192.7459      0.49776674
       4193.6114      0.42513438
       4194.4769      0.48623185
       4195.3424      0.64861088
       4196.2079      0.51498786
       4197.0733      0.47044903
       4197.9388      0.49442178
       4198.8043      0.49078646
       4199.6698      0.48742052
       4200.5353      0.48183741
       4201.4008      0.49297426
       4202.2662      0.50784222
       4203.1317      0.39416965
       4203.9972      0.43758017
       4204.8627      0.55190685
       4205.7282      0.51263592
       4206.5937      0.49558175
       4207.4591      0.44296039
       4208.3246      0.51737841
       4209.1901      0.48029753
       4210.0556      0.37486652
       4210.9211      0.40946044
       4211.7866      0.45271523
       4212.6520      0.48030932
       4213.5175      0.43241930
       4214.3830      0.41779764
       4215.2485      0.45147798
       4216.1140      0.50352415
       4216.9795      0.52203285
       4217.8449      0.53157019
       4218.7104      0.44034188
       4219.5759      0.50013500
       4220.4414      0.47218391
       4221.3069      0.47430673
       4222.1723      0.56532366
       4223.0378      0.62140217
       4223.9033      0.53368379
       4224.7688      0.56207653
       4225.6343      0.43859738
       4226.4998      0.42576864
       4227.3652      0.50941278
       4228.2307      0.53402877
       4229.0962      0.45448596
       4229.9617      0.43552688
       4230.8272      0.40988201
       4231.6927      0.44155957
       4232.5581      0.51620572
       4233.4236      0.55372495
       4234.2891      0.57459894
       4235.1546      0.51298063
       4236.0201      0.55907768
       4236.8856      0.43288298
       4237.7510      0.41857646
       4238.6165      0.43575855
       4239.4820      0.52260340
       4240.3475      0.60114997
       4241.2130      0.45319666
       4242.0785      0.51443472
       4242.9439      0.52024367
       4243.8094      0.50499749
       4244.6749      0.55617622
       4245.5404      0.56311970
       4246.4059      0.56225359
       4247.2714      0.60569637
       4248.1368      0.51531494
       4249.0023      0.52373334
       4249.8678      0.49923881
       4250.7333      0.51869677
       4251.5988      0.47717641
       4252.4643      0.41870122
       4253.3297      0.35320497
       4254.1952      0.37409317
       4255.0607      0.48127065
       4255.9262      0.47583556
       4256.7917      0.44613372
       4257.6572      0.47294381
       4258.5226      0.50943008
       4259.3881      0.50104038
       4260.2536      0.41835586
       4261.1191      0.46920856
       4261.9846      0.48001176
       4262.8501      0.53952993
       4263.7155      0.47659962
       4264.5810      0.50685813
       4265.4465      0.53714725
       4266.3120      0.54928891
       4267.1775      0.49889213
       4268.0430      0.38014615
       4268.9084      0.40094872
       4269.7739      0.41863723
       4270.6394      0.54921447
       4271.5049      0.53389780
       4272.3704      0.48027966
       4273.2359      0.43084467
       4274.1013      0.49116501
       4274.9668      0.48982142
       4275.8323      0.40367350
       4276.6978      0.35273012
       4277.5633      0.41105127
       4278.4288      0.39097462
       4279.2942      0.37323949
       4280.1597      0.38569327
       4281.0252      0.42456699
       4281.8907      0.43116496
       4282.7562      0.40208262
       4283.6217      0.33974790
       4284.4871      0.38355319
       4285.3526      0.46693459
       4286.2181      0.35747366
       4287.0836      0.39142776
       4287.9491      0.47004670
       4288.8146      0.41164515
       4289.6800      0.44986828
       4290.5455      0.44982189
       4291.4110      0.42424287
       4292.2765      0.42960440
       4293.1420      0.36411285
       4294.0075      0.36087215
       4294.8729      0.42593950
       4295.7384      0.45065771
       4296.6039      0.53808508
       4297.4694      0.56193372
       4298.3349      0.51894628
       4299.2003      0.54748519
       4300.0658      0.47601446
       4300.9313      0.45982803
       4301.7968      0.43630615
       4302.6623      0.48623328
       4303.5278      0.49982878
       4304.3932      0.37102930
       4305.2587      0.35705823
       4306.1242      0.50165449
       4306.9897      0.43860055
       4307.8552      0.42397447
       4308.7207      0.44768764
       4309.5861      0.44941217
       4310.4516      0.42184655
       4311.3171      0.47284172
       4312.1826      0.51584486
       4313.0481      0.49889355
       4313.9136      0.41347421
       4314.7790      0.30207259
       4315.6445      0.40762818
       4316.5100      0.46741651
       4317.3755      0.48686683
       4318.2410      0.45227821
       4319.1065      0.41650890
       4319.9719      0.45474223
       4320.8374      0.41061191
       4321.7029      0.46613015
       4322.5684      0.45912976
       4323.4339      0.44009791
       4324.2994      0.39412712
       4325.1648      0.36088283
       4326.0303      0.46907010
       4326.8958      0.53320190
       4327.7613      0.42818420
       4328.6268      0.40168960
       4329.4923      0.38005371
       4330.3577      0.37168501
       4331.2232      0.38732122
       4332.0887      0.47243995
       4332.9542      0.45645652
       4333.8197      0.48533210
       4334.6852      0.40565648
       4335.5506      0.46656898
       4336.4161      0.57281970
       4337.2816      0.48500095
       4338.1471      0.45894881
       4339.0126      0.52365285
       4339.8781      0.61906710
       4340.7435      0.59008018
       4341.6090      0.47643643
       4342.4745      0.53694671
       4343.3400      0.55374286
       4344.2055      0.51605951
       4345.0710      0.53524378
       4345.9364      0.55528230
       4346.8019      0.53906555
       4347.6674      0.54565143
       4348.5329      0.46830831
       4349.3984      0.46670356
       4350.2639      0.50413555
       4351.1293      0.43676508
       4351.9948      0.42113648
       4352.8603      0.51618853
       4353.7258      0.52165232
       4354.5913      0.50994906
       4355.4568      0.48931541
       4356.3222      0.62625228
       4357.1877      0.49306931
       4358.0532      0.47602130
       4358.9187      0.54654792
       4359.7842      0.42034379
       4360.6497      0.42612797
       4361.5151      0.48964050
       4362.3806      0.53219788
       4363.2461      0.59387670
       4364.1116      0.50484029
       4364.9771      0.49724083
       4365.8426      0.50763132
       4366.7080      0.47867323
       4367.5735      0.45351708
       4368.4390      0.46481142
       4369.3045      0.41192094
       4370.1700      0.49375513
       4371.0355      0.56861494
       4371.9009      0.47267582
       4372.7664      0.51728677
       4373.6319      0.46618316
       4374.4974      0.51772416
       4375.3629      0.55977447
       4376.2284      0.54614764
       4377.0938      0.50285633
       4377.9593      0.53270920
       4378.8248      0.50785292
       4379.6903      0.47376312
       4380.5558      0.55585178
       4381.4212      0.43833464
       4382.2867      0.31338773
       4383.1522      0.44525196
       4384.0177      0.43359879
       4384.8832      0.32362170
       4385.7487      0.44212760
       4386.6141      0.54415805
       4387.4796      0.50985170
       4388.3451      0.51397711
       4389.2106      0.45791609
       4390.0761      0.48494899
       4390.9416      0.49676153
       4391.8070      0.40077398
       4392.6725      0.41393130
       4393.5380      0.46782462
       4394.4035      0.46413005
       4395.2690      0.47888443
       4396.1345      0.43458635
       4396.9999      0.47568811
       4397.8654      0.45084005
       4398.7309      0.42583118
       4399.5964      0.44122714
       4400.4619      0.40399761
       4401.3274      0.47343828
       4402.1928      0.45238598
       4403.0583      0.43804685
       4403.9238      0.50619274
       4404.7893      0.44593313
       4405.6548      0.43516119
       4406.5203      0.47690568
       4407.3857      0.42166827
       4408.2512      0.30741019
       4409.1167      0.48496441
       4409.9822      0.45980393
       4410.8477      0.38681114
       4411.7132      0.53393549
       4412.5786      0.48402298
       4413.4441      0.52779259
       4414.3096      0.48789845
       4415.1751      0.40006320
       4416.0406      0.40389917
       4416.9061      0.40918303
       4417.7715      0.39729735
       4418.6370      0.36997051
       4419.5025      0.38530188
       4420.3680      0.38828239
       4421.2335      0.39198444
       4422.0990      0.39962098
       4422.9644      0.50746427
       4423.8299      0.44500614
       4424.6954      0.40017474
       4425.5609      0.33650464
       4426.4264      0.42881014
       4427.2919      0.41323541
       4428.1573      0.47894776
       4429.0228      0.52797906
       4429.8883      0.46543013
       4430.7538      0.44326146
       4431.6193      0.39001448
       4432.4848      0.45162670
       4433.3502      0.53309806
       4434.2157      0.49999379
       4435.0812      0.22688346
       4435.9467     0.037135033
       4436.8122      0.75293163
       4437.6777      0.54635808
       4438.5431      0.45810099
       4439.4086      0.67638191
       4440.2741      0.32582913
       4441.1396      0.53402972
       4442.0051      0.42464203
       4442.8706      0.38072967
       4443.7360      0.42337370
       4444.6015      0.44722286
       4445.4670      0.36267319
       4446.3325      0.37753894
       4447.1980      0.39602031
       4448.0635      0.44756174
       4448.9289      0.49077054
       4449.7944      0.41564631
       5278.7429       1.6439273
       5279.6883       1.7637813
       5280.6337       1.6957580
       5281.5791       1.6041692
       5282.5245       1.2619397
       5283.4699       1.2591216
       5284.4153       1.2639598
       5285.3607       1.3388775
       5286.3061       1.4000753
       5287.2515       1.2851713
       5288.1969       1.3100201
       5289.1423       1.6606599
       5290.0877       1.5112630
       5291.0331       1.6315245
       5291.9785       1.3695709
       5292.9239       1.3426615
       5293.8693       1.3048705
       5294.8147       1.2378955
       5295.7601       1.2652989
       5296.7055       1.3126539
       5297.6509       1.5047559
       5298.5963       1.3474275
       5299.5418       1.3162819
       5300.4872       1.3657091
       5301.4326       1.2983589
       5302.3780       1.2997343
       5303.3234       1.4228762
       5304.2688       1.3753230
       5305.2142       1.4202378
       5306.1596       1.5255946
       5307.1050       1.5701296
       5308.0504       1.5355125
       5308.9958       1.4569417
       5309.9412       1.3088528
       5310.8866       1.4386259
       5311.8320       1.3126424
       5312.7774       1.2897931
       5313.7228       1.3757109
       5314.6682       1.4326119
       5315.6136       1.3910441
       5316.5590       1.3632536
       5317.5044       1.2512479
       5318.4498       1.4797858
       5319.3952       1.4681930
       5320.3406       1.2951619
       5321.2860       1.4010147
       5322.2315       1.3464041
       5323.1769       1.3826389
       5324.1223       1.5097927
       5325.0677       1.4264224
       5326.0131       1.5522825
       5326.9585       1.2848141
       5327.9039       1.4190386
       5328.8493       1.6232186
       5329.7947       1.3651550
       5330.7401       1.5269959
       5331.6855       1.4899688
       5332.6309       1.2906425
       5333.5763       1.3570172
       5334.5217       1.4605465
       5335.4671       1.4076136
       5336.4125       1.3729318
       5337.3579       1.5262895
       5338.3033       1.8218018
       5339.2487       1.4031900
       5340.1941       1.3947394
       5341.1395       1.3698767
       5342.0849       1.1222025
       5343.0303       1.2578393
       5343.9757       1.0899541
       5344.9211       1.4349246
       5345.8666       1.4310695
       5346.8120       1.4242417
       5347.7574       1.3279315
       5348.7028       1.2973505
       5349.6482       1.4093725
       5350.5936       1.5930320
       5351.5390       1.6077714
       5352.4844       1.3975041
       5353.4298       1.3510339
       5354.3752       1.4738403
       5355.3206       1.5206137
       5356.2660       1.2663359
       5357.2114       1.4502449
       5358.1568       1.3322585
       5359.1022       1.3168490
       5360.0476       1.4661766
       5360.9930       1.4902370
       5361.9384       1.4171067
       5362.8838       1.6191248
       5363.8292       1.4757439
       5364.7746       1.1985165
       5365.7200       1.3363271
       5366.6654       1.3845903
       5367.6108       1.3808721
       5368.5562       1.4773345
       5369.5017       1.3264246
       5370.4471       1.3138622
       5371.3925       1.3360748
       5372.3379       1.2589247
       5373.2833       1.4034831
       5374.2287       1.2475035
       5375.1741       1.3815298
       5376.1195       1.4380550
       5377.0649       1.3138902
       5378.0103       1.1711890
       5378.9557       1.2835337
       5379.9011       1.3561783
       5380.8465       1.2454364
       5381.7919       1.4012076
       5382.7373       1.3930428
       5383.6827       1.3334813
       5384.6281       1.6031614
       5385.5735       1.4456618
       5386.5189       1.3307352
       5387.4643       1.3885979
       5388.4097       1.4690669
       5389.3551       1.4227936
       5390.3005       1.3836616
       5391.2459       1.4125822
       5392.1914       1.6659824
       5393.1368       1.3665380
       5394.0822       1.3793155
       5395.0276       1.5398222
       5395.9730       1.3194443
       5396.9184       1.5003722
       5397.8638       1.3535837
       5398.8092       1.3041165
       5399.7546       1.5023888
       5400.7000       1.2891067
       5401.6454       1.3643181
       5402.5908       1.6832056
       5403.5362       1.3155343
       5404.4816       1.2426797
       5405.4270       1.4766844
       5406.3724       1.3915869
       5407.3178       1.6143958
       5408.2632       1.4445225
       5409.2086       1.4117318
       5410.1540       1.4219701
       5411.0994       1.3189920
       5412.0448       1.4229851
       5412.9902       1.4021835
       5413.9356       1.3843713
       5414.8810       1.5233213
       5415.8265       1.5367088
       5416.7719       1.4862947
       5417.7173       1.5548818
       5418.6627       1.7015734
       5419.6081       1.6772225
       5420.5535       1.6758114
       5421.4989       1.5265092
       5422.4443       1.4174320
       5423.3897       1.5617468
       5424.3351       1.5848286
       5425.2805       1.4545074
       5426.2259       1.4392093
       5427.1713       1.6352944
       5428.1167       1.3086872
       5429.0621       1.4441851
       5430.0075       1.4146476
       5430.9529       1.3925407
       5431.8983       1.4297229
       5432.8437       1.3160588
       5433.7891       1.3596020
       5434.7345       1.5435162
       5435.6799       1.5306353
       5436.6253       1.3202924
       5437.5707       1.4458083
       5438.5162       1.5909616
       5439.4616       1.5744629
       5440.4070       1.5877786
       5441.3524       1.4352141
       5442.2978       1.2411791
       5443.2432       1.2070816
       5444.1886       1.4927409
       5445.1340       1.3071575
       5446.0794       1.1779786
       5447.0248       1.1520098
       5447.9702      0.90108554
       5448.9156      0.96344700
       5449.8610      0.90529770
       5450.8064       1.3901568
       5451.7518       1.9739493
       5452.6972       1.9246609
       5453.6426       1.7211826
       5454.5880       1.3775799
       5455.5334       1.2391352
       5456.4788       1.4073080
       5457.4242       1.4140542
       5458.3696       1.3582453
       5459.3150       1.3611592
       5460.2604       1.3867951
       5461.2058       1.4287120
       5462.1513       1.3314994
       5463.0967       1.5104623
       5464.0421       1.4262817
       5464.9875       1.5349095
       5465.9329       1.5337800
       5466.8783       1.5325126
       5467.8237       1.5811592
       5468.7691       1.4226400
       5469.7145       1.3642023
       5470.6599       1.3987080
       5471.6053       1.5340434
       5472.5507       1.7231334
       5473.4961      0.90896320
       5474.4415       1.0242085
       5475.3869      0.99584853
       5476.3323      0.51657323
       5477.2777      0.63156896
       5478.2231       1.0007263
       5479.1685      0.74395953
       5480.1139      0.93461709
       5481.0593       1.0999974
       5482.0047       1.3055824
       5482.9501       1.2364920
       5483.8955       1.2945162
       5484.8410       1.3154730
       5485.7864       1.3077538
       5486.7318       1.2642471
       5487.6772       1.2615000
       5488.6226       1.3093160
       5489.5680       1.3021565
       5490.5134       1.4805881
       5491.4588       1.5152372
       5492.4042       1.3781360
       5493.3496       1.2950830
       5494.2950       1.4005067
       5495.2404       1.4456737
       5496.1858       1.3500106
       5497.1312       1.2661910
       5498.0766       1.0924664
       5499.0220       1.3512983
       5499.9674       1.3762596
       5500.9128       1.3285695
       5501.8582       1.2526693
       5502.8036       1.4564802
       5503.7490       1.4872178
       5504.6944       1.6538350
       5505.6398       1.3550508
       5506.5852       1.3228481
       5507.5306       1.5058635
       5508.4761       1.5063620
       5509.4215       1.5372189
       5510.3669       1.3665153
       5511.3123       1.1941935
       5512.2577       1.6194419
       5513.2031       1.4530006
       5514.1485       1.3831717
       5515.0939       1.3072410
       5516.0393       1.3724579
       5516.9847       1.4455965
       5517.9301       1.4422840
       5518.8755       1.3807778
       5519.8209       1.1738723
       5520.7663       1.3535477
       5521.7117       1.3934346
       5522.6571       1.6334676
       5523.6025       1.2664862
       5524.5479       1.0585791
       5525.4933       1.3605273
       5526.4387       1.2676164
       5527.3841       1.2709057
       5528.3295       1.4568335
       5529.2749       1.4421797
       5530.2203       1.4008906
       5531.1658       1.5561120
       5532.1112       1.4988087
       5533.0566       1.3634376
       5534.0020       1.6411677
       5534.9474       1.3263794
       5535.8928       1.7177645
       5536.8382       1.4870880
       5537.7836       1.4945378
       5538.7290       1.4075295
       5539.6744       1.7529165
       5540.6198       1.5702664
       5541.5652       1.4093228
       5542.5106       1.6016935
       5543.4560       1.6082220
       5544.4014       1.6523506
       5545.3468       1.6950944
       5546.2922       1.7970900
       5547.2376       1.6804492
       5548.1830       1.4608404
       5549.1284       1.5073618
       5550.0738       1.5196698
       5551.0192       1.6135069
       5551.9646       1.4391529
       5552.9100       1.4085956
       5553.8554       1.3675671
       5554.8009       1.4004715
       5555.7463       1.4365552
       5556.6917       1.4323945
       5557.6371       1.6532001
       5558.5825       1.4513980
       5559.5279       1.3789318
       5560.4733       1.6598012
       5561.4187       1.6448443
       5562.3641       1.4661911
       5563.3095       1.5748906
       5564.2549       1.4512059
       5565.2003       1.6174309
       5566.1457       1.4500986
       5567.0911       1.5386510
       5568.0365       1.4265766
       5568.9819       1.4909398
       5569.9273       1.3546979
       5570.8727       1.4581902
       5571.8181       1.5966125
       5572.7635       1.3468410
       5573.7089       1.2818436
       5574.6543       1.1588043
       5575.5997       1.4289916
       5576.5451       1.2486658
       5577.4905       1.4792678
       5578.4360       1.4764302
       5579.3814       1.4677133
       5580.3268       1.5052018
       5581.2722       1.4755155
       5582.2176       1.3095886
       5583.1630       1.5579753
       5584.1084       1.6577535
       5585.0538       1.5508855
       5585.9992       1.4827338
       5586.9446       1.3870579
       5587.8900       1.3134674
       5588.8354       1.5850006
       5589.7808       1.6709392
       5590.7262       1.7041631
       5591.6716       1.7531850
       5592.6170       1.5517277
       5593.5624       1.3905287
       5594.5078       1.6391178
       5595.4532       1.5402222
       5596.3986       1.4756006
       5597.3440       1.2357179
       5598.2894       1.3532962
       5599.2348       1.2979675
       5600.1802       1.2724675
       5601.1257       1.3097195
       5602.0711       1.4698841
       5603.0165       1.4562397
       5603.9619       1.2874315
       5604.9073       1.4859546
       5605.8527       1.4848139
       5606.7981       1.2904625
       5607.7435       1.4423847
       5608.6889       1.6511018
       5609.6343       1.3266456
       5610.5797       1.3975618
       5611.5251       1.7438152
       5612.4705       1.4945457
       5613.4159       1.4637019
       5614.3613       1.4974824
       5615.3067       1.5854628
       5616.2521       1.5667128
       5617.1975       1.5364513
       5618.1429       1.5033993
       5619.0883       1.5070607
       5620.0337       1.4768878
       5620.9791       1.5649775
       5621.9245       1.4839232
       5622.8699       1.3436563
       5623.8153       1.5978663
       5624.7608       1.5566272
       5625.7062       1.7266962
       5626.6516       1.5763275
       5627.5970       1.6488173
       5628.5424       1.4852813
       5629.4878       1.6626021
       5630.4332       1.5519786
       5631.3786       1.5877064
       5632.3240       1.6847692
       5633.2694       1.6761033
       5634.2148       1.5562642
       5635.1602       1.5135160
       5636.1056       1.6250897
       5637.0510       1.5063188
       5637.9964       1.3955924
       5638.9418       1.3864473
       5639.8872       1.4442819
       5640.8326       1.4298837
       5641.7780       1.3685845
       5642.7234       1.5674465
       5643.6688       1.4597843
       5644.6142       1.2694000
       5645.5596       1.5626397
       5646.5050       1.5453194
       5647.4505       1.5051953
       5648.3959       1.7063834
       5649.3413       1.6440515
       5650.2867       1.6082902
       5651.2321       1.7451145
       5652.1775       1.7626854
       5653.1229       1.6363676
       5654.0683       1.5818594
       5655.0137       1.4626962
       5655.9591       1.6589107
       5656.9045       1.7806004
       5657.8499       1.5151750
       5658.7953       1.5927757
       5659.7407       1.6089895
       5660.6861       1.6241105
       5661.6315       1.6965573
       5662.5769       1.6925819
       5663.5223       1.5900523
       5664.4677       1.5470157
       5665.4131       1.3402871
       5666.3585       1.5028618
       5667.3039       1.8447975
       5668.2493       1.7369500
       5669.1947       1.6332369
       5670.1401       1.6360523
       5671.0856       1.4865506
       5672.0310       1.4574475
       5672.9764       1.6237390
       5673.9218       1.6482772
       5674.8672       1.4484511
       5675.8126       1.5737378
       5676.7580       1.4988060
       5677.7034       1.5579123
       5678.6488       1.6717155
       5679.5942       1.5940335
       5680.5396       1.5289241
       5681.4850       1.5995339
       5682.4304       1.6332348
       5683.3758       1.4971143
       5684.3212       1.4311054
       5685.2666       1.4085605
       5686.2120       1.4292795
       5687.1574       1.6039746
       5688.1028       1.8332763
       5689.0482       1.7925722
       5689.9936       1.7845695
       5690.9390       1.5450176
       5691.8844       1.4931559
       5692.8298       1.5321499
       5693.7753       1.5834338
       5694.7207       1.5832872
       5695.6661       1.6419636
       5696.6115       1.6435979
       5697.5569       1.7274149
       5698.5023       1.6288030
       5699.4477       1.4243405
       5700.3931       1.4181520
       5701.3385       1.5466555
       5702.2839       1.6307071
       5703.2293       1.7077670
       5704.1747       1.5713497
       5705.1201       1.6678494
       5706.0655       1.5837178
       5707.0109       1.7379153
       5707.9563       1.6871433
       5708.9017       1.6460077
       5709.8471       1.6844467
       5710.7925       1.7683615
       5711.7379       1.7761869
       5712.6833       1.5873242
       5713.6287       1.6023260
       5714.5741       1.5787426
       5715.5195       1.5983963
       5716.4649       1.3484387
       5717.4104       1.6006074
       5718.3558       1.5447387
       5719.3012       1.6135601
       5720.2466       1.7999892
       5721.1920       1.6646390
       5722.1374       1.6570232
       5723.0828       1.6500472
       5724.0282       1.4839572
       5724.9736       1.6324707
       5725.9190       1.5501546
       5726.8644       1.5032915
       5727.8098       1.6016318
       5728.7552       1.6253994
       5729.7006       1.6743893
       5730.6460       1.5589691
       5731.5914       1.5779592
       5732.5368       1.4050115
       5733.4822       1.5420328
       5734.4276       1.4032802
       5735.3730       1.4993399
       5736.3184       1.5378145
       5737.2638       1.4887673
       5738.2092       1.5162449
       5739.1546       1.5125384
       5740.1001       1.4092920
       5741.0455       1.5190575
       5741.9909       1.3822876
       5742.9363       1.4855507
       5743.8817       1.4651637
       5744.8271       1.6466879
       5745.7725       1.5190984
       5746.7179       1.6451270
       5747.6633       1.6036838
       5748.6087       1.6095990
       5749.5541       1.6552063
       5750.4995       1.5998407
       5751.4449       1.4615003
       5752.3903       1.5582882
       5753.3357       1.4569191
       5754.2811       1.3889841
       5755.2265       1.4123958
       5756.1719       1.5992411
       5757.1173       1.8090471
       5758.0627       1.6335858
       5759.0081       1.7121948
       5759.9535       1.5771580
       5760.8989       1.5300812
       5761.8443       1.5883630
       5762.7897       1.7102321
       5763.7352       1.4429050
       5764.6806       1.5998195
       5765.6260       1.6301194
       5766.5714       1.5246503
       5767.5168       1.6107932
       5768.4622       1.4661293
       5769.4076       1.6609381
       5770.3530       1.6416613
       5771.2984       1.3863267
       5772.2438       1.5463559
       5773.1892       1.5830874
       5774.1346       1.6428357
       5775.0800       1.4513349
       5776.0254       1.6200222
       5776.9708       1.7678157
       5777.9162       1.5834960
       5778.8616       1.5494319
       5779.8070       1.3898197
       5780.7524       1.5419037
       5781.6978       1.6576913
       5782.6432       1.2573105
       5783.5886       1.2502369
       5784.5340       1.5972340
       5785.4794       1.5594159
       5786.4249       1.4859532
       5787.3703       1.5321804
       5788.3157       1.5853480
       5789.2611       1.5801466
       5790.2065       1.8889128
       5791.1519       1.4649311
       5792.0973       1.4500561
       5793.0427       1.6190369
       5793.9881       1.3246621
       5794.9335       1.2231363
       5795.8789       1.6710319
       5796.8243       1.5915583
       5797.7697       1.4446778
       5798.7151       1.4735887
       5799.6605       1.4765465
       5800.6059       1.5114824
       5801.5513       1.7403912
       5802.4967       1.4335513
       5803.4421       1.3639727
       5804.3875       1.3789598
       5805.3329       1.5703482
       5806.2783       1.6479874
       5807.2237       1.2511066
       5808.1691       1.5578727
       5809.1145       1.8387247
       5810.0600       1.7038883
       5811.0054       1.3895037
       5811.9508       1.2810135
       5812.8962       1.3736959
       5813.8416       1.4975565
       5814.7870       1.3530208
       5815.7324       1.8293081
       5816.6778       1.5269440
       5817.6232       1.4333511
       5818.5686       1.3631416
       5819.5140       1.5913514
       5820.4594       1.5875600
       5821.4048       1.2805349
       5822.3502       1.3073575
       5823.2956       1.5626574
       5824.2410       1.2299319
       5825.1864       1.4164921
       5826.1318       1.3796111
       5827.0772       1.4183808
       5828.0226       1.4530407
       5828.9680       1.6181835
       5829.9134       1.5445148
       5830.8588       1.6194873
       5831.8042       1.7440043
       5832.7496       1.6270492
       5833.6951       1.6941297
       5834.6405       1.7232214
       5835.5859       1.5538649
       5836.5313       1.5757468
       5837.4767       1.6092813
       5838.4221       1.6896058
       5839.3675       1.6491964
       5840.3129       1.7067457
       5841.2583       1.5664843
       5842.2037       1.2471937
       5843.1491       1.3588291
       5844.0945       1.3042133
       5845.0399       1.5237140
       5845.9853       1.7069356
       5846.9307       1.2543380
       5847.8761       1.4758466
       5848.8215       1.8940430
       5849.7669       1.6621498
       5850.7123       1.8556313
       5851.6577       1.8488900
       5852.6031       1.5338273
       5853.5485       1.5259966
       5854.4939       1.5951337
       5855.4393       1.2730549
       5856.3848       1.4114086
       5857.3302       1.6543210
       5858.2756       1.4177892
       5859.2210       1.5018202
       5860.1664       1.6601282
       5861.1118       1.7266796
       5862.0572       1.6472801
       5863.0026       1.6733806
       5863.9480       1.5800631
       5864.8934       1.7308364
       5865.8388       1.4471683
       5866.7842       1.4679934
       5867.7296       1.8578656
       5868.6750       2.1558531
       5869.6204       1.8660127
       5870.5658       1.7659403
       5871.5112       1.8222401
       5872.4566       1.9384212
       5873.4020       1.8756641
       5874.3474       1.7394466
       5875.2928       1.6694123
       5876.2382       1.5275432
       5877.1836       1.6291657
       5878.1290       1.3920589
       5879.0744       1.2783337
       5880.0199       1.3788645
       5880.9653       1.4728610
       5881.9107       1.4597812
       5882.8561       1.4103993
       5883.8015       1.4218599
       5884.7469       1.5759488
       5885.6923       1.5495300
       5886.6377       1.8445229
       5887.5831       1.6047736
       5888.5285       1.6790129
       5889.4739       1.5903493
       5890.4193       1.8350622
       5891.3647       1.9226769
       5892.3101       1.7225699
       5893.2555       1.7208081
       5894.2009       1.5291287
       5895.1463       1.6196424
       5896.0917       1.7300318
       5897.0371       1.8159137
       5897.9825       1.8798681
       5898.9279       1.6686969
       5899.8733       1.5599282
       5900.8187       1.7344283
       5901.7641       1.8200528
       5902.7096       1.6449631
       5903.6550       1.8907249
       5904.6004       1.9025513
       5905.5458       1.7227215
       5906.4912       1.7555657
       5907.4366       1.6230486
       5908.3820       1.8164632
       5909.3274       1.6369911
       5910.2728       1.6028999
       5911.2182       1.4504730
       5912.1636       1.4005380
       5913.1090       1.6968642
       5914.0544       1.7493702
       5914.9998       1.7316344
       5915.9452       1.5439964
       5916.8906       1.8472795
       5917.8360       1.8436886
       5918.7814       2.1246224
       5919.7268       2.0519649
       5920.6722       2.1100194
       5921.6176       1.6534591
       5922.5630       1.7365619
       5923.5084       1.8487000
       5924.4538       1.6609577
       5925.3992       1.6481758
       5926.3447       1.5969780
       5927.2901       1.7636715
       5928.2355       1.8406395
       5929.1809       1.7077364
       5930.1263       1.7968839
       5931.0717       1.8921859
       5932.0171       1.8120542
       5932.9625       1.8841736
       5933.9079       1.8967057
       5934.8533       1.9654140
       5935.7987       2.0597135
       5936.7441       1.8014029
       5937.6895       1.5003184
       5938.6349       1.5844738
       5939.5803       1.6340421
       5940.5257       1.4776512
       5941.4711       1.6481662
       5942.4165       1.5033590
       5943.3619       1.6253998
       5944.3073       1.5343462
       5945.2527       1.5736213
       5946.1981       1.6478798
       5947.1435       1.4584798
       5948.0889       1.6500602
       5949.0344       1.4372303
       5949.9798       1.8248714
       5950.9252       1.7397232
       5951.8706       1.8183176
       5952.8160       1.7516249
       5953.7614       1.8206796
       5954.7068       1.7883177
       5955.6522       1.8295942
       5956.5976       1.7132972
       5957.5430       1.8405045
       5958.4884       1.7122339
       5959.4338       1.6438114
       5960.3792       1.9178861
       5961.3246       1.8921914
       5962.2700       1.8020965
       5963.2154       1.9022438
       5964.1608       1.8355788
       5965.1062       1.7327738
       5966.0516       1.7300865
       5966.9970       1.6698788
       5967.9424       1.6841014
       5968.8878       1.6849923
       5969.8332       1.8283581
       5970.7786       1.7537857
       5971.7240       1.5438911
       5972.6695       1.8274942
       5973.6149       1.6055496
       5974.5603       1.8720319
       5975.5057       1.8510907
       5976.4511       2.1152488
       5977.3965       1.7100275
       5978.3419       1.4731549
       5979.2873       1.5543359
       5980.2327       1.5956573
       5981.1781       2.0587367
       5982.1235       2.1173134
       5983.0689       1.8153129
       5984.0143       1.9500168
       5984.9597       2.0547281
       5985.9051       2.0609538
       5986.8505       1.8834515
       5987.7959       1.8949029
       5988.7413       2.0020362
       5989.6867       1.8832997
       5990.6321       1.8095381
       5991.5775       1.8860193
       5992.5229       1.8232721
       5993.4683       1.6254014
       5994.4137       1.6668959
       5995.3592       1.8813786
       5996.3046       1.7854603
       5997.2500       1.5192530
       5998.1954       1.7668176
       5999.1408       1.8160740
       6000.0862       1.6833624
       6001.0316       1.7342351
       6001.9770       1.7224324
       6002.9224       1.7780826
       6003.8678       1.9136872
       6004.8132       1.8770474
       6005.7586       1.5973094
       6006.7040       1.6773889
       6007.6494       1.5161224
       6008.5948       1.5602332
       6009.5402       1.6733037
       6010.4856       1.7797204
       6011.4310       1.5708622
       6012.3764       1.6761560
       6013.3218       1.7031180
       6014.2672       1.3199252
       6015.2126       1.9513483
       6016.1580       2.0572829
       6017.1034       1.6996911
       6018.0488       1.9713565
       6018.9943       1.9240863
       6019.9397       1.6195462
       6020.8851       1.6340876
       6021.8305       1.9254450
       6022.7759       1.7121424
       6023.7213       1.7263693
       6024.6667       1.7228982
       6025.6121       1.7868669
       6026.5575       1.7548088
       6027.5029       1.7086414
       6028.4483       1.7563014
       6029.3937       1.6392903
       6030.3391       1.8300591
       6031.2845       1.8343007
       6032.2299       1.8884968
       6033.1753       1.9553921
       6034.1207       2.0004961
       6035.0661       1.7585582
       6036.0115       1.8322038
       6036.9569       1.6934157
       6037.9023       1.6374079
       6038.8477       1.7388076
       6039.7931       1.7623376
       6040.7385       1.5096556
       6041.6839       1.5644721
       6042.6294       1.7989525
       6043.5748       1.8437004
       6044.5202       1.7883064
       6045.4656       1.9623051
       6046.4110       1.8120767
       6047.3564       1.9125465
       6048.3018       1.5288952
       6049.2472       1.4122287
       6050.1926       1.5653894
       6051.1380       1.7748306
       6052.0834       1.6766601
       6053.0288       1.6785788
       6053.9742       2.0092387
       6054.9196       1.7454634
       6055.8650       1.7793019
       6056.8104       1.6378549
       6057.7558       2.0031557
       6058.7012       2.0774935
       6059.6466       2.0064962
       6060.5920       1.7281706
       6061.5374       1.7132978
       6062.4828       1.8663503
       6063.4282       2.1822099
       6064.3736       1.9312161
       6065.3191       1.8351263
       6066.2645       1.8259444
       6067.2099       1.9360679
       6068.1553       1.7969729
       6069.1007       1.8647826
       6070.0461       1.6833265
       6070.9915       1.4115291
       6071.9369       1.3997231
       6072.8823       1.1265943
       6073.8277      0.99311616
       6074.7731      0.67626444
       6075.7185      0.53639028
       6076.6639      0.25420634
       6077.6093     0.043090460
       6078.5547             NaN
       6079.5001             NaN
       6080.4455             NaN
       6081.3909             NaN
       6082.3363             NaN
       6083.2817             NaN
       6084.2271             NaN
       6085.1725             NaN
       6086.1179             NaN
       6087.0633             NaN
       6088.0087             NaN
       6088.9542             NaN
       6089.8996             NaN
       6090.8450             NaN
       6091.7904             NaN
       6092.7358             NaN
       6093.6812             NaN
       6094.6266             NaN
       6095.5720             NaN
       6096.5174             NaN
       6097.4628             NaN
       6098.4082             NaN
       6099.3536             NaN
       6100.2990             NaN
       6101.2444             NaN
       6102.1898             NaN
       6103.1352             NaN
       6104.0806             NaN
       6105.0260             NaN
       6105.9714             NaN
       6106.9168             NaN
       6107.8622             NaN
       6108.8076             NaN
       6109.7530             NaN
       6110.6984             NaN
       6111.6439             NaN
       6112.5893             NaN
       6113.5347             NaN
       6114.4801             NaN
       6115.4255             NaN
       6116.3709             NaN
       6117.3163             NaN
       6118.2617             NaN
       6119.2071             NaN
       6120.1525             NaN
       6121.0979             NaN
       6122.0433             NaN
       6122.9887             NaN
       6123.9341             NaN
       6124.8795             NaN
       6125.8249             NaN
       6126.7703             NaN
       6127.7157             NaN
       6128.6611             NaN
       6129.6065             NaN
       6130.5519             NaN
       6131.4973             NaN
       6132.4427             NaN
       6133.3881             NaN
       6134.3335             NaN
       6135.2790             NaN
       6136.2244             NaN
       6137.1698             NaN
       6138.1152             NaN
       6139.0606             NaN
       6140.0060             NaN
       6140.9514             NaN
       6141.8968             NaN
       6142.8422             NaN
       6143.7876             NaN
       6144.7330             NaN
       6145.6784             NaN
       6146.6238             NaN
       6147.5692             NaN
       6148.5146             NaN
       6149.4600             NaN
       6150.4054             NaN
       6151.3508             NaN
       6152.2962             NaN
       6153.2416             NaN
       6154.1870             NaN
       6155.1324             NaN
       6156.0778             NaN
       6157.0232             NaN
       6157.9687             NaN
       6158.9141             NaN
       6159.8595             NaN
       6160.8049             NaN
       6161.7503             NaN
       6162.6957             NaN
       6163.6411       1.6435845
       6164.5865       1.9121536
       6165.5319       2.0881233
       6166.4773       1.8662119
       6167.4227       1.6094286
       6168.3681       1.5682853
       6169.3135       1.6141279
       6170.2589       2.3283828
       6171.2043       1.9584714
       6172.1497       1.9504916
       6173.0951       1.7554579
       6174.0405       1.4056365
       6174.9859       1.6186604
       6175.9313       1.8803436
       6176.8767       1.9155010
       6177.8221       1.9022133
       6178.7675       1.8916938
       6179.7129       1.8028223
       6180.6583       1.5492468
       6181.6038       1.6867656
       6182.5492       1.7554018
       6183.4946       1.8948752
       6184.4400       1.7560605
       6185.3854       1.9319487
       6186.3308       1.7592557
       6187.2762       1.7830549
       6188.2216       1.7742519
       6189.1670       1.6110373
       6190.1124       1.8425851
       6191.0578       2.0622463
       6192.0032       1.9475983
       6192.9486       1.9001712
       6193.8940       2.0423806
       6194.8394       2.1020843
       6195.7848       1.8276636
       6196.7302       2.1015672
       6197.6756       1.9410000
       6198.6210       1.5766762
       6199.5664       1.7058734
       6200.5118       1.7360801
       6201.4572       1.6920736
       6202.4026       1.8580469
       6203.3480       1.8103247
       6204.2935       1.8057815
       6205.2389       1.5654674
       6206.1843       1.5950469
       6207.1297       1.4338419
       6208.0751       1.7047194
       6209.0205       1.8354572
       6209.9659       1.5344413
       6210.9113       1.7183955
       6211.8567       1.5616529
       6212.8021       1.4378967
       6213.7475       1.5013843
       6214.6929       1.6555807
       6215.6383       1.7872204
       6216.5837       1.7092317
       6217.5291       1.9311929
       6218.4745       1.5758634
       6219.4199       1.6122197
       6220.3653       1.8712694
       6221.3107       1.9152723
       6222.2561       1.8556884
       6223.2015       1.7958233
       6224.1469       1.8872768
       6225.0923       1.8099811
       6226.0377       1.7433637
       6226.9831       1.9047600
       6227.9286       1.9880702
       6228.8740       1.7733691
       6229.8194       1.6975517
       6230.7648       1.7298620
       6231.7102       1.7426881
       6232.6556       1.6544235
       6233.6010       1.3280640
       6234.5464       1.0138482
       6235.4918       1.3575204
       6236.4372       1.8464217
       6237.3826       2.2664551
       6238.3280       3.0507128
       6239.2734       2.7769048
       6240.2188       1.9873764
       6241.1642       1.8897788
       6242.1096       1.5587020
       6243.0550       1.5197924
       6244.0004       1.7124025
       6244.9458       1.4580439
       6245.8912       1.4264994
       6246.8366       1.2410941
       6247.7820       1.2923688
       6248.7274       1.6307054
       6249.6728       1.5884066
       6250.6182       1.4905751
       6251.5637       1.5582905
       6252.5091       1.6869211
       6253.4545       1.8467536
       6254.3999       1.8972502
       6255.3453       1.7169047
       6256.2907       1.0567514
       6257.2361       1.0899948
       6258.1815       1.8215965
       6259.1269       1.6439870
       6260.0723       2.2057521
       6261.0177       1.8220206
       6261.9631       1.7560974
       6262.9085       1.6672297
       6263.8539       1.5176216
       6264.7993       1.3388013
       6265.7447       1.3009055
       6266.6901       1.4554666
       6267.6355       1.3780205
       6268.5809       1.3714524
       6269.5263       1.7140981
       6270.4717       1.5683162
       6271.4171       1.6202149
       6272.3625       1.6578389
       6273.3079       1.4994076
       6274.2534       1.4398872
       6275.1988       1.6261919
       6276.1442       1.7555044
       6277.0896       2.1143560
       6278.0350       2.0339049
       6278.9804       1.8115685
       6279.9258       1.8789622
       6280.8712       1.8996544
       6281.8166       1.8152102
       6282.7620       1.7591692
       6283.7074       1.7410486
       6284.6528       1.9606661
       6285.5982       2.0830436
       6286.5436       1.8577905
       6287.4890       1.8156671
       6288.4344       1.9027379
       6289.3798       1.6216967
       6290.3252       2.1934427
       6291.2706       1.8066170
       6292.2160       2.0604024
       6293.1614       2.1223125
       6294.1068       1.8354203
       6295.0522       1.4863268
       6295.9976       2.0924770
       6296.9430       1.5851307
       6297.8885       1.8020996
       6298.8339       1.4249318
       6299.7793       1.8138185
       6300.7247       2.1142435
       6301.6701       1.8302469
       6302.6155       1.7967833
       6303.5609       1.8572535
       6304.5063       1.9746181
       6305.4517       1.8648346
       6306.3971       1.8831784
       6307.3425       1.9804573
       6308.2879       1.5798467
       6309.2333       1.5738923
       6310.1787       1.5317763
       6311.1241       1.2145838
       6312.0695       1.4859035
       6313.0149       1.1448950
       6313.9603       1.3264299
       6314.9057       1.4851058
       6315.8511       1.5317376
       6316.7965       1.6693249
       6317.7419       1.8319903
       6318.6873       1.5063130
       6319.6327       1.6680101
       6320.5782       1.6058565
       6321.5236       1.6469534
       6322.4690       1.8632391
       6323.4144       1.8583335
       6324.3598       1.8509859
       6325.3052       1.5059548
       6326.2506       1.2768287
       6327.1960       1.3854384
       6328.1414       1.6309689
       6329.0868       2.1430186
       6330.0322       1.9593833
       6330.9776       1.5436468
       6331.9230       1.4790108
       6332.8684       1.7461590
       6333.8138       1.6985200
       6334.7592       2.0270588
       6335.7046       2.6395537
       6336.6500       1.6604378
       6337.5954       1.4267727
       6338.5408       1.5028561
       6339.4862       1.6592564
       6340.4316       1.9843522
       6341.3770       1.7791441
       6342.3224       1.8398949
       6343.2678       1.9608756
       6344.2133       1.4642873
       6345.1587       1.6561463
       6346.1041       1.8114738
       6347.0495       1.3394497
       6347.9949       1.7638445
       6348.9403       1.9876923
       6349.8857       1.5375298
       6350.8311       1.6462006
       6351.7765       1.5064277
       6352.7219       1.5779847
       6353.6673       1.6799828
       6354.6127       1.7058032
       6355.5581       1.7581465
       6356.5035       1.7881543
       6357.4489       1.9429273
       6358.3943       1.8645865
       6359.3397       1.6745861
       6360.2851       1.2000137
       6361.2305       1.7262131
       6362.1759       1.8511003
       6363.1213       1.7061355
       6364.0667       1.8870287
       6365.0121       1.8789821
       6365.9575       1.8149974
       6366.9030       1.7452211
       6367.8484       1.6506743
       6368.7938       1.9969307
       6369.7392       1.9733919
       6370.6846       1.4355468
       6371.6300       2.0186931
       6372.5754       1.3254458
       6373.5208       1.2222430
       6374.4662       1.0633237
       6375.4116       1.5870343
       6376.3570       1.6563004
       6377.3024       1.8393915
       6378.2478       1.8188526
       6379.1932       1.6895501
       6380.1386       1.7273402
       6381.0840       1.6560917
       6382.0294       1.5650208
       6382.9748       1.6670040
       6383.9202       1.8630491
       6384.8656       1.6715000
       6385.8110       1.8710529
       6386.7564       1.7907551
       6387.7018       2.0630812
       6388.6472       1.7339391
       6389.5926       1.8627771
       6390.5381       2.2863944
       6391.4835       2.3270102
       6392.4289       1.9718847
       6393.3743       1.2468221
       6394.3197       1.3903620
       6395.2651       2.2531855
       6396.2105       2.1249276
       6397.1559       2.4770109
       6398.1013       2.4489857
       6399.0467       1.8616453
       6399.9921       1.9252780
       6400.9375       1.9711150
       6401.8829       1.8077373
       6402.8283       1.8671901
       6403.7737       1.6376336
       6404.7191       1.7327349
       6405.6645       1.7750195
       6406.6099       1.6408693
       6407.5553       1.5534083
       6408.5007       1.7143821
       6409.4461       1.9875808
       6410.3915       1.8385638
       6411.3369       1.7183665
       6412.2823       1.8848677
       6413.2278       1.8937893
       6414.1732       1.9254201
       6415.1186       1.9161537
       6416.0640       1.7991502
       6417.0094       1.8573462
       6417.9548       2.3554151
       6418.9002       1.9565474
       6419.8456       1.1685125
       6420.7910       2.0674171
       6421.7364       2.0161092
       6422.6818       1.4372532
       6423.6272       1.6720739
       6424.5726       1.5779493
       6425.5180       1.6802815
       6426.4634       1.6498884
       6427.4088       1.5003931
       6428.3542       1.5940897
       6429.2996       1.6579082
       6430.2450       1.4272002
       6431.1904       1.7473651
       6432.1358       1.7084143
       6433.0812       1.6924263
       6434.0266       1.6904287
       6434.9720       1.6457039
       6435.9174       1.6105313
       6436.8629       1.7593227
       6437.8083       1.7852330
       6438.7537       1.7352977
       6439.6991       1.5394877
       6440.6445       1.6559103
       6441.5899       1.7809532
       6442.5353       1.7025869
       6443.4807       1.8337784
       6444.4261       1.8375957
       6445.3715       1.7571863
       6446.3169       1.5409996
       6447.2623       1.7572885
       6448.2077       1.5099491
       6449.1531       1.7478793
       6450.0985       2.1387695
       6451.0439       1.5171972
       6451.9893       1.5241110
       6452.9347       1.6825847
       6453.8801      0.97932110
       6454.8255       1.2432747
       6455.7709       1.5901726
       6456.7163       1.6096997
       6457.6617       1.6613132
       6458.6071       1.8594434
       6459.5526       1.6261677
       6460.4980       1.6956324
       6461.4434       1.7867860
       6462.3888       1.7243011
       6463.3342       1.5806866
       6464.2796       1.8018045
       6465.2250       1.6613839
       6466.1704       1.3970890
       6467.1158       1.6652927
       6468.0612       1.6754231
       6469.0066       1.5393811
       6469.9520       1.7825768
       6470.8974       1.6384523
       6471.8428       1.6088736
       6472.7882       1.7515825
       6473.7336       1.9237643
       6474.6790       1.8850025
       6475.6244       2.0269197
       6476.5698       1.8864626
       6477.5152       1.7908540
       6478.4606       1.8857498
       6479.4060       1.5799257
       6480.3514       1.4920415
       6481.2968       1.7376276
       6482.2422       1.8032997
       6483.1877       1.6930836
       6484.1331       1.9985970
       6485.0785       1.8863688
       6486.0239       1.7763459
       6486.9693       1.6646410
       6487.9147       1.7271266
       6488.8601       1.5293600
       6489.8055       1.6845283
       6490.7509       1.6190674
       6491.6963       1.5358782
       6492.6417       1.3256512
       6493.5871       1.6471381
       6494.5325       1.5271542
       6495.4779       1.5672193
       6496.4233       1.6026126
       6497.3687       1.6574708
       6498.3141       1.7895215
       6499.2595       1.6249900
       6500.2049       1.5508076
       6501.1503       1.8584698
       6502.0957       1.9270183
       6503.0411       1.8510590
       6503.9865       1.8468565
       6504.9319       1.7734671
       6505.8773       1.8108244
       6506.8228       1.7374266
       6507.7682       1.6465180
       6508.7136       1.7126645
       6509.6590       1.8252201
       6510.6044       1.9543590
       6511.5498       1.7495315
       6512.4952       1.5164120
       6513.4406       1.7327428
       6514.3860       1.7104985
       6515.3314       1.6028174
       6516.2768       1.7599531
       6517.2222       1.4261903
       6518.1676       1.6543762
       6519.1130       1.7286385
       6520.0584       1.6555987
       6521.0038       1.6760888
       6521.9492       1.7302402
       6522.8946       1.7228745
       6523.8400       1.9012650
       6524.7854       1.6858370
       6525.7308       1.6465099
       6526.6762       1.6206734
       6527.6216       1.8278377
       6528.5670       1.6636934
       6529.5125       1.4200627
       6530.4579       1.6515845
       6531.4033       1.5014910
       6532.3487       1.5199468
       6533.2941       1.6379136
       6534.2395       1.7415614
       6535.1849       1.6179713
       6536.1303       1.5738080
       6537.0757       1.8559201
       6538.0211       1.8588186
       6538.9665       1.8799553
       6539.9119       2.0435250
       6540.8573       1.8869001
       6541.8027       1.8659027
       6542.7481       2.1485723
       6543.6935       1.9456679
       6544.6389       1.9675024
       6545.5843       2.0787144
       6546.5297       2.0463497
       6547.4751       1.9956108
       6548.4205       1.8792761
       6549.3659       1.8703871
       6550.3113       1.6206786
       6551.2567       1.8087411
       6552.2021       1.9621471
       6553.1476       2.2053867
       6554.0930       2.6955745
       6555.0384       3.2918707
       6555.9838       4.1651393
       6556.9292       4.6885787
       6557.8746       5.0669045
       6558.8200       5.0283015
       6559.7654       5.0955971
       6560.7108       4.7458627
       6561.6562       4.2705298
       6562.6016       3.6649938
       6563.5470       3.1692560
       6564.4924       2.6219898
       6565.4378       2.1995813
       6566.3832       1.7422844
       6567.3286       1.8821057
       6568.2740       1.9612598
       6569.2194       1.9759053
       6570.1648       1.8825993
       6571.1102       1.8371317
       6572.0556       1.7420562
       6573.0010       1.7730531
       6573.9464       2.0405814
       6574.8918       2.2404141
       6575.8373       2.1346252
       6576.7827       2.5745565
       6577.7281       2.7793731
       6578.6735       2.5417433
       6579.6189       2.9400460
       6580.5643       2.8592510
       6581.5097       2.5232943
       6582.4551       2.3608859
       6583.4005       1.9329831
       6584.3459       1.8171638
       6585.2913       1.8464934
       6586.2367       1.9213499
       6587.1821       1.6582360
       6588.1275       2.0346352
       6589.0729       1.7364477
       6590.0183       1.7048028
       6590.9637       1.6315119
       6591.9091       1.6318660
       6592.8545       1.7246819
       6593.7999       1.6968828
       6594.7453       1.9000976
       6595.6907       1.6721138
       6596.6361       1.6559693
       6597.5815       1.6877258
       6598.5269       1.6071179
       6599.4724       1.8226529
       6600.4178       1.5745952
       6601.3632       1.7201383
       6602.3086       1.8942088
       6603.2540       1.6926336
       6604.1994       1.7283696
       6605.1448       1.7954213
       6606.0902       1.5979944
       6607.0356       1.6084890
       6607.9810       1.6656878
       6608.9264       1.6426193
       6609.8718       1.7044594
       6610.8172       1.6533848
       6611.7626       1.3359060
       6612.7080       1.7485819
       6613.6534       2.0669244
       6614.5988       1.9267668
       6615.5442       1.7735707
       6616.4896       2.0544961
       6617.4350       1.6153848
       6618.3804       1.7514084
       6619.3258       1.9534455
       6620.2712       1.8591482
       6621.2166       1.3407477
       6622.1621       1.3650782
       6623.1075       1.4141351
       6624.0529       1.1991502
       6624.9983       1.5036792
       6625.9437      0.95814785
       6626.8891       1.2876327
       6627.8345       2.1542421
       6628.7799       2.0202000
       6629.7253       1.6958613
       6630.6707       1.3061984
       6631.6161       1.8279698
       6632.5615       2.2103369
       6633.5069       2.2356221
       6634.4523       1.6937024
       6635.3977       1.9369335
       6636.3431       1.7697587
       6637.2885       1.5781339
       6638.2339       1.6059387
       6639.1793       1.9425473
       6640.1247       2.1097454
       6641.0701       2.9948347
       6642.0155       3.0914249
       6642.9609       2.5577988
       6643.9063       1.6725371
       6644.8517       1.7584673
       6645.7972       1.3540366
       6646.7426       1.8133473
       6647.6880       1.5996031
       6648.6334       1.4071770
       6649.5788       1.7202781
       6650.5242       1.8159078
       6651.4696       1.5759288
       6652.4150       1.3888053
       6653.3604       1.8465690
       6654.3058       1.5004686
       6655.2512       1.8561538
       6656.1966       1.1636658
       6657.1420       1.6990239
       6658.0874       1.6711722
       6659.0328       1.8771665
       6659.9782       1.5171861
       6660.9236       1.7651643
       6661.8690       1.5519718
       6662.8144       1.4474886
       6663.7598       1.7028898
       6664.7052       1.7110205
       6665.6506       1.7713966
       6666.5960       1.7207088
       6667.5414       1.8217200
       6668.4869       1.8270167
       6669.4323       1.5381114
       6670.3777       1.6647549
       6671.3231       1.6263455
       6672.2685       2.0015445
       6673.2139       2.0193349
       6674.1593      0.91290350
       6675.1047      0.60497220
       6676.0501       1.1442714
       6676.9955       2.0786884
       6677.9409       1.2518839
       6678.8863       1.7138644
       6679.8317       1.3515652
       6680.7771       1.4509868
       6681.7225       1.5116172
       6682.6679       2.5046349
       6683.6133      0.81006632
       6684.5587       1.7909758
       6685.5041       1.7072282
       6686.4495       1.9011243
       6687.3949       2.1556012
       6688.3403       2.1962187
       6689.2857       1.9333890
       6690.2311       1.6954566
       6691.1765       1.9652381
       6692.1220       1.8440289
       6693.0674       2.0103872
       6694.0128       1.7807714
       6694.9582       2.0430969
       6695.9036       1.5312803
       6696.8490       1.9470280
       6697.7944       1.8989556
       6698.7398       1.7187309
       6699.6852       1.8317839
       6700.6306       1.6707483
       6701.5760       1.8925309
       6702.5214       1.7767668
       6703.4668       1.6901438
       6704.4122       1.8631545
       6705.3576       1.9205189
       6706.3030       1.7543785
       6707.2484       1.8892563
       6708.1938       1.9052185
       6709.1392       2.1799170
       6710.0846       2.3029729
       6711.0300       2.7921215
       6711.9754       2.6066053
       6712.9208       2.7692701
       6713.8662       2.5105330
       6714.8116       2.7676367
       6715.7571       2.8427676
       6716.7025       2.6247794
       6717.6479       2.7063715
       6718.5933       1.6448139
       6719.5387       1.7466204
       6720.4841       1.0303439
       6721.4295       2.3773310
       6722.3749       4.9585664
       6723.3203       4.5596801
       6724.2657       4.7627731
       6725.2111       3.9444166
       6726.1565       2.7999782
       6727.1019       2.6245762
       6728.0473       2.1912786
       6728.9927       3.0283434
       6729.9381       2.2872909
       6730.8835       1.8464159
       6731.8289       2.0076106
       6732.7743       1.3722701
       6733.7197       1.8495051
       6734.6651       1.8638832
       6735.6105       1.3685366
       6736.5559       1.6767814
       6737.5013       1.5795511
       6738.4468       1.6353276
       6739.3922       1.8743226
       6740.3376       1.9760741
       6741.2830       1.5789621
       6742.2284       2.6327508
       6743.1738       2.2216052
       6744.1192       2.2035228
       6745.0646       1.5868498
       6746.0100       1.9211771
       6746.9554       2.3999234
       6747.9008       1.7727079
       6748.8462       1.7717045
       6749.7916       1.4061282
       6750.7370       1.7368588
       6751.6824       2.1421949
       6752.6278       1.6920477
       6753.5732       1.6664392
       6754.5186       1.8788499
       6755.4640       1.7284976
       6756.4094       1.9249367
       6757.3548       2.4014698
       6758.3002       2.3382496
       6759.2456       2.2566616
       6760.1910       1.8385496
       6761.1364       1.5762618
       6762.0819       1.6204028
       6763.0273       1.7208022
       6763.9727       1.8771724
       6764.9181       1.4867921
       6765.8635       1.6709172
       6766.8089       1.6551039
       6767.7543       1.8481295
       6768.6997       1.3284475
       6769.6451       1.8146088
       6770.5905       1.4832460
       6771.5359      0.97165007
       6772.4813       2.5626232
       6773.4267       5.3985432
       6774.3721       5.9098365
       6775.3175       2.0002713
       6776.2629       2.3528954
       6777.2083       2.0060948
       6778.1537       1.7880863
       6779.0991       1.8867159
       6780.0445       1.8485319
       6780.9899       1.8371942
       6781.9353       1.7736203
       6782.8807       1.5739648
       6783.8261       1.5821160
       6784.7716       1.7581823
       6785.7170       1.7004529
       6786.6624       1.5559142
       6787.6078       1.6918537
       6788.5532       1.8577823
       6789.4986       1.7280051
       6790.4440       1.9963143
       6791.3894       1.8069180
       6792.3348       1.9343421
       6793.2802       1.9528999
       6794.2256       1.8924337
       6795.1710       1.8811841
       6796.1164       2.1501581
       6797.0618       2.3482843
       6798.0072       2.4328886
       6798.9526       1.5658917
       6799.8980       2.2334974
       6800.8434       1.5724671
       6801.7888       1.9238710
       6802.7342       1.5827067
       6803.6796       1.6165649
       6804.6250       1.6607750
       6805.5704       1.8245402
       6806.5158      0.98743893
       6807.4612       1.0211181
       6808.4067       1.5915201
       6809.3521       1.8221677
       6810.2975       1.8687705
       6811.2429       1.8988302
       6812.1883       1.9697171
       6813.1337       1.9815784
       6814.0791       1.6966472
       6815.0245       1.8097850
       6815.9699       1.6886267
       6816.9153       1.6581585
       6817.8607       1.8780001
       6818.8061       1.7785764
       6819.7515       1.9265303
       6820.6969       1.7335206
       6821.6423       1.9323886
       6822.5877       1.7629562
       6823.5331       1.7810341
       6824.4785       1.9359332
       6825.4239       1.7748086
       6826.3693       1.9422065
       6827.3147       1.8920593
       6828.2601       1.8579800
       6829.2055       1.9324857
       6830.1509       1.5709607
       6831.0964       1.8911840
       6832.0418       2.1538488
       6832.9872       2.2934400
       6833.9326       2.2012934
       6834.8780       1.7834234
       6835.8234       1.8428733
       6836.7688       1.7860652
       6837.7142       1.4660841
       6838.6596       1.8290181
       6839.6050       1.8975741
       6840.5504       1.9315816
       6841.4958       1.2753570
       6842.4412       1.5657333
       6843.3866       1.7235771
       6844.3320       1.7791827
       6845.2774       1.8474955
       6846.2228       1.8076218
       6847.1682       1.9058384
       6848.1136       1.6755787
       6849.0590       1.8857517
       6850.0044       1.9331481
       6850.9498       1.8115482
       6851.8952       1.8404976
       6852.8406       1.8432052
       6853.7860       1.6929771
       6854.7315       1.8662471
       6855.6769       1.8168766
       6856.6223       1.7672653
       6857.5677       1.6942430
       6858.5131       1.9428532
       6859.4585       1.7994755
       6860.4039       1.7631154
       6861.3493       1.8373256
       6862.2947       1.9566758
       6863.2401       2.0826094
       6864.1855       1.9759293
       6865.1309       1.8680999
       6866.0763       1.9025133
       6867.0217       1.8895982
       6867.9671       1.8330666
       6868.9125       1.8511282
       6869.8579       1.9348061
       6870.8033       2.0286939
       6871.7487       1.8781501
       6872.6941       2.0702500
       6873.6395       1.8039623
       6874.5849       1.7032436
       6875.5303       1.9851440
       6876.4757       1.9503307
       6877.4212       1.9947595
       6878.3666       1.8312688
       6879.3120       1.6897894
       6880.2574       2.1026166
       6881.2028       1.9590594
       6882.1482       1.6635027
       6883.0936       1.9178396
       6884.0390       1.9675709
       6884.9844       1.7757797
       6885.9298       1.7724499
       6886.8752       1.6786562
       6887.8206       1.9073320
       6888.7660       2.1400831
       6889.7114       2.0347710
       6890.6568       1.8765127
       6891.6022       1.7897414
       6892.5476       1.6596540
       6893.4930       1.7349087
       6894.4384       1.4483549
       6895.3838       1.9641909
       6896.3292       2.1868709
       6897.2746       1.7239311
       6898.2200       1.5620308
       6899.1654       2.3015514
       6900.1108       1.8055942
       6901.0563       1.8656621
       6902.0017       1.9791471
       6902.9471       1.7243651
       6903.8925       1.7268607
       6904.8379       1.7612476
       6905.7833       2.1270182
       6906.7287       1.9170277
       6907.6741       2.0167530
       6908.6195       1.8361341
       6909.5649       2.0097836
       6910.5103       1.9392266
       6911.4557       2.0975575
       6912.4011       2.0058099
       6913.3465       1.8566187
       6914.2919       1.7507536
       6915.2373       1.9608752
       6916.1827       1.9060265
       6917.1281       1.4908440
       6918.0735       1.2960130
       6919.0189       1.4763392
       6919.9643       1.9517383
       6920.9097       1.8927890
       6921.8551       2.1907161
       6922.8005       1.7343695
       6923.7459       1.8954251
       6924.6914       1.9210566
       6925.6368       1.6714282
       6926.5822       1.9921337
       6927.5276       1.5465197
       6928.4730       2.1911076
       6929.4184       1.9972969
       6930.3638       2.0003586
       6931.3092       1.8308039
       6932.2546       1.8187886
       6933.2000       1.7092377
       6934.1454       1.7145992
       6935.0908       1.8701710
       6936.0362       1.7078058
       6936.9816       1.9841130
       6937.9270       1.9309448
       6938.8724       1.9902162
       6939.8178       2.0174309
       6940.7632       1.9188452
       6941.7086       1.8093162
       6942.6540       1.7584741
       6943.5994       1.9221089
       6944.5448       1.7089684
       6945.4902       1.7928884
       6946.4356       1.8579299
       6947.3811       1.9761487
       6948.3265       1.7771427
       6949.2719       1.9694677
       6950.2173       1.9059793
       6951.1627       1.9375907
       6952.1081       1.8613256
       6953.0535       1.8923508
       6953.9989       1.7987101
       6954.9443       1.8683729
       6955.8897       1.8293406
       6956.8351       1.9647020
       6957.7805       1.8248585
       6958.7259       1.9303765
       6959.6713       2.1798447
       6960.6167       2.0820202
       6961.5621       1.8169130
       6962.5075       1.9674141
       6963.4529       2.1417706
       6964.3983       2.0485159
       6965.3437       1.8724462
       6966.2891       1.9227553
       6967.2345       2.0056847
       6968.1799       1.8851959
       6969.1253       2.0035956
       6970.0707       2.1467120
       6971.0162       1.9748783
       6971.9616       1.8235532
       6972.9070       1.9456015
       6973.8524       2.0053313
       6974.7978       1.8215183
       6975.7432       2.0094124
       6976.6886       2.0028187
       6977.6340       1.8702108
       6978.5794       1.8964016
       6979.5248       1.9210498
       6980.4702       1.9013619
       6981.4156       1.8561330
       6982.3610       1.9773236
       6983.3064       2.0311564
       6984.2518       1.9073284
       6985.1972       1.6715615
       6986.1426       1.8730214
       6987.0880       1.7791119
       6988.0334       1.8915937
       6988.9788       1.8881790
       6989.9242       1.8686291
       6990.8696       1.9078697
       6991.8150       1.8112764
       6992.7604       1.6999876
       6993.7059       1.5747840
       6994.6513       1.7707725
       6995.5967       1.7657569
       6996.5421       1.9280953
       6997.4875       2.0849741
       6998.4329       1.9158538
       6999.3783       1.5415248
       7000.3237       1.4382562
       7001.2691       1.6079790
       7002.2145       1.8650502
       7003.1599       1.9413128
       7004.1053       1.6624953
       7005.0507       1.4960221
       7005.9961       1.5532453
       7006.9415       1.9934811
       7007.8869       2.3105485
       7008.8323       2.1457354
       7009.7777       2.0668569
       7010.7231       1.6033530
       7011.6685       1.3750491
       7012.6139       1.7455691
       7013.5593       1.4486879
       7014.5047       1.5520995
       7015.4501       1.8817315
       7016.3955       2.2341958
       7017.3410       1.2299062
       7018.2864       1.8025157
       7019.2318       2.2769849
       7020.1772       1.3836308
       7021.1226       2.5119398
       7022.0680       2.5530176
       7023.0134       2.4700537
       7023.9588       2.2937864
       7024.9042       1.8481324
       7025.8496       2.2152464
       7026.7950       1.7936248
       7027.7404       1.8345757
       7028.6858       2.2078285
       7029.6312       2.3196458
       7030.5766       1.7822355
       7031.5220       2.0567854
       7032.4674       1.9986559
       7033.4128       2.0137574
       7034.3582       2.0427312
       7035.3036       2.0424585
       7036.2490       1.9260116
       7037.1944       1.9627619
       7038.1398       1.8792834
       7039.0852       1.9859726
       7040.0307       1.8232603
       7040.9761       1.9532408
       7041.9215       1.9840773
       7042.8669       1.8487084
       7043.8123       1.9179932
       7044.7577       1.9589239
       7045.7031       1.9205221
       7046.6485       1.9713155
       7047.5939       1.9637406
       7048.5393       2.1864494
       7049.4847       2.4218445
       7050.4301       2.4365989
       7051.3755       2.2276228
       7052.3209       2.1516858
       7053.2663       2.0201128
       7054.2117       2.5743967
       7055.1571       3.0174985
       7056.1025       2.4479157
       7057.0479       2.3467544
       7057.9933       2.7246133
       7058.9387       2.9863957
       7059.8841       3.0515217
       7060.8295       1.2554491
       7061.7749       2.3136112
       7062.7203       3.1556629
       7063.6658       2.5493557
       7064.6112       1.4203388
       7065.5566       1.1444309
       7066.5020       1.6859439
       7067.4474       1.5562054
       7068.3928       1.6859373
       7069.3382       1.8708427
       7070.2836       1.7666247
       7071.2290       1.6302327
       7072.1744      0.33977814
       7073.1198      0.85780089
       7074.0652       1.3778994
       7075.0106       1.8341400
       7075.9560       1.7279232
       7076.9014       1.5886877
       7077.8468       1.6951607
       7078.7922       1.4659752
       7079.7376       1.4981284
       7080.6830       1.7223393
       7081.6284       1.8380055
       7082.5738       1.7710054
       7083.5192       1.8196393
       7084.4646       1.7606606
       7085.4100       1.7916960
       7086.3555       1.7188597
       7087.3009       2.1055016
       7088.2463       3.4522426
       7089.1917       3.3234577
       7090.1371       2.7902007
       7091.0825       1.8143016
       7092.0279       1.3443419
       7092.9733       1.0708244
       7093.9187       1.4930997
       7094.8641       2.0198860
       7095.8095       2.0661543
       7096.7549       1.8482651
       7097.7003       1.8785248
       7098.6457       2.1699148
       7099.5911       2.1968870
       7100.5365       1.8614593
       7101.4819     0.085894974
       7102.4273      -3.1531454
       7103.3727      -3.6905810
       7104.3181     -0.96998085
       7105.2635    -0.084279782
       7106.2089      0.57365723
       7107.1543       2.2861964
       7108.0997       2.8932988
       7109.0451       3.3953827
       7109.9906       2.3553750
       7110.9360       2.2270588
       7111.8814       2.5211188
       7112.8268       2.9397180
       7113.7722       2.2968220
       7114.7176       2.0570456
       7115.6630       2.0828161
       7116.6084       1.7613932
       7117.5538       1.7916392
       7118.4992       1.9367118
       7119.4446       1.6071308
       7120.3900       1.9976260
       7121.3354      0.98263827
       7122.2808      -1.8282203
       7123.2262      -2.0962584
       7124.1716      -1.4954073
       7125.1170     0.026528567
       7126.0624       1.5054611
       7127.0078       1.8836803
       7127.9532       1.8110961
       7128.8986       1.6810788
       7129.8440       1.3694819
       7130.7894       2.2566107
       7131.7348       2.3357983
       7132.6803       1.2320325
       7133.6257       1.5030723
       7134.5711       3.2674556
       7135.5165       2.2128109
       7136.4619       2.9884920
       7137.4073       3.1040334
       7138.3527       2.2879797
       7139.2981       2.0205384
       7140.2435       1.8527547
       7141.1889       1.8817168
       7142.1343       1.7551151
       7143.0797       1.8766113
       7144.0251       1.8532178
       7144.9705       1.9969513
       7145.9159       1.8305857
       7146.8613       1.9231617
       7147.8067       1.8765238
       7148.7521       1.9397189
       7149.6975       1.9239665
       7150.6429       2.0136773
       7151.5883       2.0967586
       7152.5337       1.8905965
       7153.4791       1.7682523
       7154.4245       1.6523640
       7155.3699       1.2475593
       7156.3154       1.6664464
       7157.2608       1.9276874
       7158.2062       2.0083189
       7159.1516       2.7344920
       7160.0970       2.0038691
       7161.0424      0.90946430
       7161.9878      0.87606242
       7162.9332       2.1289555
       7163.8786       1.4691392
       7164.8240       1.8330186
       7165.7694       2.3604909
       7166.7148       2.2503478
       7167.6602       1.8436282
       7168.6056       1.6664115
       7169.5510       1.8758372
       7170.4964       1.8748684
       7171.4418       1.9085097
       7172.3872       1.6931402
       7173.3326       1.6711721
       7174.2780       1.8024352
       7175.2234       1.9628534
       7176.1688       1.9562354
       7177.1142       1.8655132
       7178.0596       1.9151943
       7179.0050       1.8848279
       7179.9505       1.9275214
       7180.8959       1.7390395
       7181.8413       1.7502487
       7182.7867       1.8078270
       7183.7321       2.1449356
       7184.6775       1.9109455
       7185.6229       1.9475995
       7186.5683       1.4117835
       7187.5137       1.2938636
       7188.4591       1.4156713
       7189.4045       1.8508659
       7190.3499       2.1289924
       7191.2953       2.0626411
       7192.2407       1.9984780
       7193.1861       1.4454495
       7194.1315       2.3942275
       7195.0769       2.3661978
       7196.0223       1.7420893
       7196.9677       1.5410502
       7197.9131      0.59663693
       7198.8585      0.41209805
       7199.8039      0.67061776
       7200.7493       1.8786090
       7201.6947       1.3648245
       7202.6402       1.9308616
       7203.5856       1.6912704
       7204.5310       1.4732273
       7205.4764       1.8307046
       7206.4218       1.8878237
       7207.3672       1.8811893
       7208.3126       1.7614964
       7209.2580       1.8265618
       7210.2034       1.8330790
       7211.1488       1.8527584
       7212.0942       1.8564261
       7213.0396       1.8081410
       7213.9850       1.7845906
       7214.9304       1.5681976
       7215.8758       1.7899904
       7216.8212       1.9532240
       7217.7666       2.0696254
       7218.7120       1.8981670
       7219.6574       1.8826243
       7220.6028       2.0232632
       7221.5482       1.9619178
       7222.4936       1.9647967
       7223.4390       1.9397681
       7224.3844       2.1256163
       7225.3298       1.9007414
       7226.2753       1.9187820
       7227.2207       1.8688915
       7228.1661       1.9489553
       7229.1115       2.0616639
       7230.0569       1.9454672
       7231.0023       2.0189678
       7231.9477       2.0660443
       7232.8931       2.1570685
       7233.8385       1.7600334
       7234.7839       1.9619542
       7235.7293       1.8123054
       7236.6747       1.8298401
       7237.6201       2.2582210
       7238.5655       2.2940663
       7239.5109       2.1895724
       7240.4563       2.3370762
       7241.4017       2.1185520
       7242.3471       1.8822004
       7243.2925       1.7670194
       7244.2379       1.7693697
       7245.1833       2.0133023
       7246.1287       1.9692722
       7247.0741       1.9992891
       7248.0195       2.1120176
       7248.9650       2.2376263
       7249.9104       2.0810069
       7250.8558       2.0761569
       7251.8012       1.9853635
       7252.7466       1.8411142
       7253.6920       1.9288734
       7254.6374       1.8092578
       7255.5828       2.0144196
       7256.5282       2.1641386
       7257.4736       1.9839478
       7258.4190       2.0182568
       7259.3644       2.0122002
       7260.3098       2.0170433
       7261.2552       1.9233296
       7262.2006       1.8413363
       7263.1460       2.0030651
       7264.0914       2.0504174
       7265.0368       2.0596888
       7265.9822       1.9049694
       7266.9276       1.9266507
       7267.8730       1.8611148
       7268.8184       1.8924527
       7269.7638       1.6150965
       7270.7092       1.8766990
       7271.6546       2.2587346
       7272.6001       2.1687455
       7273.5455       1.9525520
       7274.4909       1.9692028
       7275.4363       1.9047969
       7276.3817       1.7742834
       7277.3271       1.8556343
       7278.2725       1.9406135
       7279.2179       1.7482946
       7280.1633       1.8247203
       7281.1087       2.2334601
       7282.0541       2.1244860
       7282.9995       1.7717878
       7283.9449       1.7576208
       7284.8903       1.7309081
       7285.8357       1.8492204
       7286.7811       1.8528024
       7287.7265       1.9437270
       7288.6719       2.0189109
       7289.6173       1.8819824
       7290.5627       1.9187837
       7291.5081       2.0241227
       7292.4535       2.0248965
       7293.3989       2.0415365
       7294.3443       2.1376847
       7295.2898       2.2236540
       7296.2352       1.9897918
       7297.1806       2.1298045
       7298.1260       2.2136468
       7299.0714       2.0839615
       7300.0168       1.9930289
       7300.9622       2.0630684
       7301.9076       2.0323282
       7302.8530       2.0262479
       7303.7984       1.9423074
       7304.7438       1.9613805
       7305.6892       2.0520427
       7306.6346       2.0195042
       7307.5800       1.9487606
       7308.5254       2.1502409
       7309.4708       2.4227708
       7310.4162       2.1452547
       7311.3616       2.1530723
       7312.3070       2.1424991
       7313.2524       2.3286632
       7314.1978       2.3912289
       7315.1432       2.1129748
       7316.0886       2.1240679
       7317.0340       1.9693772
       7317.9794       1.9482095
       7318.9249       1.9636463
       7319.8703       1.9518900
       7320.8157       2.0026827
       7321.7611       1.8994085
       7322.7065       1.9950397
       7323.6519       1.8865878
       7324.5973       2.1032148
       7325.5427       1.9750328
       7326.4881       2.0013879
       7327.4335       1.9480233
       7328.3789       2.1390558
       7329.3243       2.2059587
       7330.2697       2.2450995
       7331.2151       1.9903718
       7332.1605       2.0228038
       7333.1059       1.9379883
       7334.0513       2.0207734
       7334.9967       2.0846837
       7335.9421       2.0395361
       7336.8875       1.7959177
       7337.8329       1.9258633
       7338.7783       2.1099297
       7339.7237       2.0720289
       7340.6691       1.9862208
       7341.6146       2.1720799
       7342.5600       1.9931131
       7343.5054       1.9908546
       7344.4508       1.9285466
       7345.3962       2.1229305
       7346.3416       2.0970541
       7347.2870       2.3358668
       7348.2324       2.2615185
       7349.1778       2.2675518
       7350.1232       2.1625868
       7351.0686       2.1826702
       7352.0140       2.2219801
       7352.9594       2.1583107
       7353.9048       2.0119942
       7354.8502       2.0719924
       7355.7956       2.1320955
       7356.7410       2.1205187
       7357.6864       2.2515082
       7358.6318       1.9960860
       7359.5772       2.0858531
       7360.5226       2.0249213
       7361.4680       2.0367865
       7362.4134       2.2382098
       7363.3588       2.2052954
       7364.3042       2.1914430
       7365.2497       2.2267427
       7366.1951       2.0108195
       7367.1405       2.1276526
       7368.0859       2.3166133
       7369.0313       2.0857064
       7369.9767       2.1443379
       7370.9221       2.0733869
       7371.8675       2.1862628
       7372.8129       2.2143443
       7373.7583       2.1848410
       7374.7037       2.1049104
       7375.6491       2.4070282
       7376.5945       2.2723392
       7377.5399       2.5734594
       7378.4853       2.5489204
       7379.4307       2.2251037
       7380.3761       2.3566092
       7381.3215       2.2639558
       7382.2669       2.2268529
       7383.2123       2.1871163
       7384.1577       2.0963144
       7385.1031       1.9557244
       7386.0485       2.0564952
       7386.9939       2.0866374
       7387.9393       2.2128120
       7388.8848       2.2408655
       7389.8302       2.2008202
       7390.7756       2.1567587
       7391.7210       2.0985416
       7392.6664       2.1104718
       7393.6118       2.0048905
       7394.5572       2.0478159
       7395.5026       2.1868974
       7396.4480       2.0813196
       7397.3934       2.1903337
       7398.3388       2.1380421
       7399.2842       2.3137385
       7400.2296       2.2747108
       7401.1750       2.1434985
       7402.1204       2.2481132
       7403.0658       2.1925567
       7404.0112       2.2549770
       7404.9566       2.0980361
       7405.9020       2.1495209
       7406.8474       2.2200996
       7407.7928       2.2443897
       7408.7382       2.1994517
       7409.6836       2.3079280
       7410.6290       2.2741899
       7411.5745       2.2282916
       7412.5199       1.9948415
       7413.4653       2.3417969
       7414.4107       2.4968525
       7415.3561       2.3036074
       7416.3015       2.3474330
       7417.2469       2.3638143
       7418.1923       2.0507963
       7419.1377       2.0966860
       7420.0831       2.2918250
       7421.0285       2.0506693
       7421.9739       2.1251478
       7422.9193       2.1679849
       7423.8647       2.0152810
       7424.8101       2.1420783
       7425.7555       2.1239082
       7426.7009       2.2048839
       7427.6463       2.1288478
       7428.5917       2.2329010
       7429.5371       2.1663057
       7430.4825       1.9323970
       7431.4279       2.1484047
       7432.3733       1.9095789
       7433.3187       1.9195889
       7434.2641       1.9292148
       7435.2096       2.1302719
       7436.1550       1.7927345
       7437.1004       1.5551993
       7438.0458       1.9885257
       7438.9912       2.2103565
       7439.9366       1.5965673
       7440.8820       1.2061959
       7441.8274       1.4536571
       7442.7728       1.5049724
       7443.7182       1.0492278
       7444.6636       1.5126132
       7445.6090       1.3925907
       7446.5544       2.3432438
       7447.4998       2.0356833
       7448.4452       2.3078965
       7449.3906       1.7663817
       7450.3360     -0.77105781
       7451.2814       2.5806241
       7452.2268       1.3243684
       7453.1722       1.4581105
       7454.1176      0.33327800
       7455.0630       1.9386384
       7456.0084       2.1336489
       7456.9538       2.1130041
       7457.8993       1.5419036
       7458.8447       1.8581120
       7459.7901       1.6662158
       7460.7355       1.6005092
       7461.6809       1.3793464
       7462.6263       1.5041092
       7463.5717       1.3172395
       7464.5171       1.3985466
       7465.4625       1.1898955
       7466.4079       1.6762597
       7467.3533       1.4625854
       7468.2987       1.2948966
       7469.2441       1.1214106
       7470.1895       1.6273527
       7471.1349       1.6610039
       7472.0803       1.8817374
       7473.0257       1.8498176
       7473.9711       2.2145632
       7474.9165       2.0599922
       7475.8619       1.4534301
       7476.8073       1.4512377
       7477.7527       1.5055313
       7478.6981       1.4204620
       7479.6435       1.3952768
       7480.5889       1.4993543
       7481.5344       1.5243078
       7482.4798       1.7468549
       7483.4252       1.8334150
       7484.3706       1.8149069
       7485.3160       1.8557094
       7486.2614       1.9813480
       7487.2068       1.8050806
       7488.1522       1.7840578
       7489.0976       1.7304855
       7490.0430       1.2732844
       7490.9884      0.24268384
       7491.9338       1.7091754
       7492.8792       1.2954139
       7493.8246      -4.6778363
       7494.7700       1.8295157
       7495.7154       2.8212191
       7496.6608       2.4264354
       7497.6062      0.77910796
       7498.5516       1.5730596
       7499.4970       1.6385411
       7500.4424       1.3020545
       7501.3878       1.7508600
       7502.3332       1.6540026
       7503.2786       1.7747681
       7504.2241       2.1277814
       7505.1695       2.1155025
       7506.1149       1.9299503
       7507.0603       1.9845399
       7508.0057       2.1441645
       7508.9511       2.3124476
       7509.8965       2.3734816
       7510.8419       2.4601112
       7511.7873       1.4899121
       7512.7327       1.8625875
       7513.6781       1.6694229
       7514.6235       1.5954776
       7515.5689       1.9802567
       7516.5143       1.5772630
       7517.4597       1.8027818
       7518.4051       2.8092188
       7519.3505       2.5651294
       7520.2959       2.3197866
       7521.2413       2.1526083
       7522.1867       2.1716238
       7523.1321       2.0209997
       7524.0775       2.0051606
       7525.0229       1.5754687
       7525.9683       1.8167222
       7526.9137       2.1842154
       7527.8592       1.6651375
       7528.8046       1.6290903
       7529.7500       1.1395891
       7530.6954       2.3252014
       7531.6408       2.7679240
       7532.5862       1.4707649
       7533.5316       1.1172800
       7534.4770       1.3973175
       7535.4224       1.2847726
       7536.3678       1.3482581
       7537.3132       1.5467880
       7538.2586       1.7094580
       7539.2040       2.0632779
       7540.1494       1.8022661
       7541.0948     0.049807489
       7542.0402      0.92541255
       7542.9856       3.6038671
       7543.9310       1.9529503
       7544.8764       4.1815015
       7545.8218       1.9117334
       7546.7672       2.4952800
       7547.7126       1.1699634
       7548.6580       1.1080102
       7549.6034       1.0811263
       7550.5489       1.5069793
       7551.4943       1.6971196
       7552.4397       1.5571689
       7553.3851       1.9841094
       7554.3305       1.7516528
       7555.2759       2.4073375
       7556.2213      0.81290621
       7557.1667       1.9243372
       7558.1121       2.1673278
       7559.0575       1.0576300
       7560.0029       2.0563632
       7560.9483       3.0479811
       7561.8937       2.6330408
       7562.8391       1.3534420
       7563.7845       1.8936852
       7564.7299       1.8533216
       7565.6753       2.0616715
       7566.6207       1.9578126
       7567.5661       1.9331198
       7568.5115       2.0807466
       7569.4569       1.9398672
       7570.4023     -0.51324681
       7571.3477      0.54772425
       7572.2931       3.3867827
       7573.2385       3.5688388
       7574.1840       4.7797696
       7575.1294       1.4204598
       7576.0748       3.3866555
       7577.0202       1.9707858
       7577.9656      0.99435425
       7578.9110       1.3643431
       7579.8564       1.1395735
       7580.8018       1.7253339
       7581.7472       2.0731154
       7582.6926       1.8693880
       7583.6380       2.1331571
       7584.5834       2.3374668
       7585.5288       2.1860094
       7586.4742       1.6381165
       7587.4196       1.7461064
       7588.3650       1.6077520
       7589.3104       1.3868318
       7590.2558       1.7738590
       7591.2012       1.6923819
       7592.1466       2.7195863
       7593.0920       2.4382107
       7594.0374       1.1682864
       7594.9828       1.3018302
       7595.9282       1.9727015
       7596.8737       2.6360042
       7597.8191       2.5774157
       7598.7645       1.9501712
       7599.7099       1.7190545
       7600.6553       2.2665894
       7601.6007       2.3967220
       7602.5461       2.3222301
       7603.4915       1.4808131
       7604.4369     -0.11938949
       7605.3823       1.7081513
       7606.3277       1.3127139
       7607.2731      0.55988217
       7608.2185       1.5879357
       7609.1639       2.7308572
       7610.1093       3.1111536
       7611.0547       1.5083927
       7612.0001       1.5975040
       7612.9455       1.9180063
       7613.8909       2.0851079
       7614.8363       2.0470883
       7615.7817       1.7675843
       7616.7271       2.0812847
       7617.6725       2.2431897
       7618.6179       2.3996914
       7619.5633       2.3695915
       7620.5088       2.5593973
       7621.4542       1.8505221
       7622.3996       1.7256842
       7623.3450       1.7270841
       7624.2904       1.5832131
       7625.2358       1.7411099
       7626.1812       1.6064692
       7627.1266       1.9123997
       7628.0720       1.8847677
       7629.0174       2.1201112
       7629.9628       1.2784034
       7630.9082       1.4034783
       7631.8536       2.5490989
       7632.7990       2.6247961
       7633.7444       2.3295254
       7634.6898       2.0160284
       7635.6352       2.6403228
       7636.5806       1.4903867
       7637.5260       1.1990503
       7638.4714       1.4310660
       7639.4168       1.8100153
       7640.3622       1.8304998
       7641.3076       1.4110297
       7642.2530      0.67979199
       7643.1984       2.9346842
       7644.1439       2.4439107
       7645.0893       1.1326535
       7646.0347       1.5255578
       7646.9801       4.1513895
       7647.9255       5.2631913
       7648.8709       1.3939096
       7649.8163       1.5150299
       7650.7617       1.9258036
       7651.7071       2.0130341
       7652.6525       2.3089426
       7653.5979       2.1773414
       7654.5433       1.9457029
       7655.4887       1.8836802
       7656.4341       1.8098776
       7657.3795       2.0606185
       7658.3249       1.8334860
       7659.2703       2.1419876
       7660.2157       1.9834766
       7661.1611       2.0652014
       7662.1065       1.9034135
       7663.0519       1.9100010
       7663.9973       1.6202159
       7664.9427       1.6385313
       7665.8881       1.8604880
       7666.8336       1.7731919
       7667.7790       1.9786907
       7668.7244       2.1239576
       7669.6698       2.1940536
       7670.6152       2.2872047
       7671.5606       2.0562181
       7672.5060       2.0865020
       7673.4514       2.1063630
       7674.3968       1.9379017
       7675.3422       2.3964028
       7676.2876       2.4268389
       7677.2330       2.2743559
       7678.1784       1.9668375
       7679.1238       2.5452383
       7680.0692       2.2292585
       7681.0146       1.9117207
       7681.9600       1.6703861
       7682.9054       2.0620767
       7683.8508       1.9076501
       7684.7962       1.8940232
       7685.7416       3.0227526
       7686.6870       2.8742122
       7687.6324       1.9907134
       7688.5778       2.0853029
       7689.5232       2.6046914
       7690.4687       1.3872813
       7691.4141       1.2572712
       7692.3595       1.8976511
       7693.3049       2.1106486
       7694.2503       2.4782436
       7695.1957       2.4767733
       7696.1411       2.3044836
       7697.0865       2.2620172
       7698.0319       2.3356333
       7698.9773       2.4738675
       7699.9227       2.2126290
       7700.8681       2.1186351
       7701.8135       2.0578687
       7702.7589       2.3759077
       7703.7043       2.1269970
       7704.6497       1.9768400
       7705.5951       2.0860522
       7706.5405       1.9800883
       7707.4859       2.0243140
       7708.4313       1.9009017
       7709.3767       2.1439560
       7710.3221       2.0720880
       7711.2675       2.3995475
       7712.2129       2.4516808
       7713.1584       2.5506527
       7714.1038       2.5402461
       7715.0492       2.1530406
       7715.9946       2.4029142
       7716.9400       2.2378635
       7717.8854       2.0540480
       7718.8308       2.1739076
       7719.7762       2.6859089
       7720.7216       2.0225643
       7721.6670       2.3930802
       7722.6124       2.6653670
       7723.5578       3.4461510
       7724.5032       2.7025139
       7725.4486       2.4146886
       7726.3940       2.4098309
       7727.3394       2.7907326
       7728.2848       2.1901640
       7729.2302       2.5747726
       7730.1756       1.5909217
       7731.1210       2.6641583
       7732.0664       2.2895521
       7733.0118       2.1918601
       7733.9572       2.5777829
       7734.9026       2.6553790
       7735.8480       2.9551653
       7736.7935       1.9208936
       7737.7389       2.2407079
       7738.6843       2.5513270
       7739.6297       1.1705647
       7740.5751       1.9978323
       7741.5205       2.2940451
       7742.4659       2.3327651
       7743.4113       2.3769416
       7744.3567       2.2570504
       7745.3021      0.32523482
       7746.2475      0.73632791
       7747.1929       2.4624827
       7748.1383       1.3513470
       7749.0837      0.70393130
       7750.0291       3.2244786
       7750.9745       3.3254850
       7751.9199       3.7204979
       7752.8653       1.3456148
       7753.8107       1.8817285
       7754.7561       1.8351322
       7755.7015       3.1842329
       7756.6469       2.2848031
       7757.5923       2.2965901
       7758.5377       1.8999668
       7759.4832       2.7020208
       7760.4286       2.6587859
       7761.3740       1.5944950
       7762.3194       4.6685783
       7763.2648      0.12905618
       7764.2102       2.3481540
       7765.1556      0.24494361
       7766.1010       3.4368014
       7767.0464       2.4133400
       7767.9918       2.0022123
       7768.9372      0.58766710
       7769.8826       1.1280327
       7770.8280       2.1207219
       7771.7734       2.7238709
       7772.7188       2.6694178
       7773.6642       2.1831827
       7774.6096       2.5954424
       7775.5550       1.9225636
       7776.5004      0.90619657
       7777.4458       2.0682619
       7778.3912       1.7666672
       7779.3366       1.7937710
       7780.2820       1.6053624
       7781.2274      0.60032158
       7782.1728       1.6018837
       7783.1183       1.6908279
       7784.0637       1.3028930
       7785.0091       2.0841002
       7785.9545       1.9434733
       7786.8999       2.4729543
       7787.8453       2.1740767
       7788.7907       2.4647284
       7789.7361       2.1088842
       7790.6815       2.1223659
       7791.6269       2.4415969
       7792.5723       2.5654642
       7793.5177       2.4564762
       7794.4631       2.2105889
       7795.4085       2.2972567
       7796.3539       2.1584165
       7797.2993       2.1581436
       7798.2447       2.2481100
       7799.1901       2.2296398
       7800.1355       2.3653315
       7801.0809       2.3646097
       7802.0263       2.1632516
       7802.9717       2.1632898
       7803.9171       2.3653708
       7804.8625       2.5506246
       7805.8080       2.3894972
       7806.7534       2.3669030
       7807.6988       2.5172183
       7808.6442       2.3624603
       7809.5896       2.1684817
       7810.5350       2.4852350
       7811.4804       2.3895979
       7812.4258       2.2331968
       7813.3712       2.2204017
       7814.3166       2.0317199
       7815.2620       1.9179180
       7816.2074       2.2678524
       7817.1528       1.6207654
       7818.0982      0.37823358
       7819.0436     -0.40321373
       7819.9890       7.1359606
       7820.9344       3.7585733
       7821.8798       8.1094493
       7822.8252       1.0044648
       7823.7706       4.4864688
       7824.7160       4.6808233
       7825.6614       1.2842759
       7826.6068       5.7982377
       7827.5522       3.7619078
       7828.4976       2.5841536
       7829.4431       2.0532826
       7830.3885       3.3157724
       7831.3339       4.0889152
       7832.2793       1.6555883
       7833.2247       1.1784788
       7834.1701      0.85275927
       7835.1155       2.1197905
       7836.0609       3.0866106
       7837.0063       2.6706128
       7837.9517       3.2781412
       7838.8971       3.4149302
       7839.8425       3.2336665
       7840.7879       3.7556321
       7841.7333       2.2443083
       7842.6787      0.97536409
       7843.6241       1.9780344
       7844.5695       2.5381462
       7845.5149       1.9814509
       7846.4603       1.8146293
       7847.4057       1.9979717
       7848.3511       1.8324059
       7849.2965       1.9053543
       7850.2419       2.3845727
       7851.1873       2.1741682
       7852.1327       2.1596247
       7853.0782       2.2875370
       7854.0236       1.5927963
       7854.9690       2.0200023
       7855.9144       2.3765020
       7856.8598       2.4663196
       7857.8052       2.2433696
       7858.7506       2.1872590
       7859.6960       2.5511801
       7860.6414       2.3107839
       7861.5868       2.3898127
       7862.5322       2.2428168
       7863.4776       1.7428211
       7864.4230       1.9462602
       7865.3684       4.1795502
       7866.3138       3.1428771
       7867.2592       3.6732706
       7868.2046       2.2022994
       7869.1500       2.8225532
       7870.0954       1.3435056
       7871.0408       1.3549010
       7871.9862       2.7355705
       7872.9316       2.6834342
       7873.8770       2.3918184
       7874.8224       2.2946004
       7875.7679       2.4639582
       7876.7133       2.3230743
       7877.6587       2.1894456
       7878.6041       2.0915012
       7879.5495       2.2607228
       7880.4949       2.2780828
       7881.4403       2.0747368
       7882.3857     -0.49606413
       7883.3311       4.6287518
       7884.2765       6.1122188
       7885.2219       3.1398729
       7886.1673       5.7584788
       7887.1127      0.87078721
       7888.0581       2.6128139
       7889.0035      -3.3598907
       7889.9489    0.0076295339
       7890.8943       3.4390240
       7891.8397       3.1064464
       7892.7851       2.5619347
       7893.7305       2.3929515
       7894.6759       2.4656915
       7895.6213       2.3295994
       7896.5667       1.9989951
       7897.5121       2.2889768
       7898.4575       2.0095022
       7899.4030       1.8726863
       7900.3484       1.2919178
       7901.2938       3.6938600
       7902.2392       1.7581472
       7903.1846      0.43766447
       7904.1300       1.8063216
       7905.0754       2.0562060
       7906.0208       2.2306019
       7906.9662      0.54785065
       7907.9116       2.4790371
       7908.8570       2.7006548
       7909.8024       2.2507977
