# wavelength flux
       2682.4572      0.11281867
       2683.3591      0.18052359
       2684.2610     0.070990262
       2685.1628      0.14980522
       2686.0647      0.13861868
       2686.9666      0.10160833
       2687.8685      0.19419581
       2688.7704    0.0088320478
       2689.6722      0.25679807
       2690.5741      0.38952264
       2691.4760     0.069007939
       2692.3779     0.058518005
       2693.2798     0.073286799
       2694.1816      0.13896360
       2695.0835      0.11619200
       2695.9854      0.17782448
       2696.8873      0.14177869
       2697.7892      0.15520306
       2698.6910      0.19675562
       2699.5929      0.12684773
       2700.4948     0.066317949
       2701.3967      0.17818453
       2702.2986      0.10668337
       2703.2004      0.21199921
       2704.1023      0.21532811
       2705.0042      0.26978113
       2705.9061      0.16042229
       2706.8080     0.035472833
       2707.7099     0.068330183
       2708.6117     0.093811367
       2709.5136     0.028239790
       2710.4155      0.12200813
       2711.3174      0.21685884
       2712.2193     0.077136980
       2713.1211      0.17861032
       2714.0230      0.16507582
       2714.9249      0.11586793
       2715.8268      0.18637738
       2716.7287      0.20611241
       2717.6305      0.20664227
       2718.5324      0.23501182
       2719.4343      0.35480481
       2720.3362      0.19279203
       2721.2381      0.17330411
       2722.1399     0.043002741
       2723.0418      0.12721313
       2723.9437     0.091832364
       2724.8456      0.22472874
       2725.7475      0.18576954
       2726.6493     0.082918447
       2727.5512     0.096852908
       2728.4531      0.19999318
       2729.3550     0.093350879
       2730.2569      0.30717181
       2731.1588     0.046176435
       2732.0606     0.087759573
       2732.9625      0.13436411
       2733.8644      0.13913420
       2734.7663      0.16433139
       2735.6682      0.33535948
       2736.5700      0.15584867
       2737.4719     0.032443736
       2738.3738      0.21017854
       2739.2757      0.16229089
       2740.1776      0.22990862
       2741.0794      0.25483546
       2741.9813     0.010307231
       2742.8832      0.13428718
       2743.7851      0.13915934
       2744.6870      0.12489425
       2745.5888     0.056409871
       2746.4907     0.090720682
       2747.3926     0.065470795
       2748.2945      0.18593590
       2749.1964      0.17811083
       2750.0982      0.24163405
       2751.0001      0.14579441
       2751.9020      0.12505683
       2752.8039      0.17920758
       2753.7058     0.068433453
       2754.6076      0.22004564
       2755.5095     0.066782245
       2756.4114      0.18569978
       2757.3133      0.28970622
       2758.2152      0.18111266
       2759.1171      0.20935319
       2760.0189      0.33660746
       2760.9208     0.088076597
       2761.8227      0.19068231
       2762.7246      0.17559334
       2763.6265      0.34525955
       2764.5283     0.086095637
       2765.4302      0.11181234
       2766.3321      0.15913475
       2767.2340      0.16182939
       2768.1359      0.20040179
       2769.0377     0.083512651
       2769.9396      0.23038389
       2770.8415      0.15336604
       2771.7434      0.12024858
       2772.6453      0.16854733
       2773.5471      0.19231249
       2774.4490      0.10257286
       2775.3509      0.13466792
       2776.2528      0.16414993
       2777.1547      0.12233612
       2778.0565   -0.0028534423
       2778.9584     0.085848867
       2779.8603     0.028079895
       2780.7622      0.18542833
       2781.6641     0.054903942
       2782.5660      0.15661626
       2783.4678      0.12793143
       2784.3697      0.12559082
       2785.2716      0.21372706
       2786.1735      0.11100565
       2787.0754      0.16051735
       2787.9772      0.22469976
       2788.8791      0.19532565
       2789.7810      0.31337380
       2790.6829      0.22936001
       2791.5848      0.13379431
       2792.4866      0.20931343
       2793.3885      0.21928178
       2794.2904      0.28547831
       2795.1923      0.15221122
       2796.0942      0.16497539
       2796.9960      0.18659770
       2797.8979      0.23837385
       2798.7998      0.24104954
       2799.7017      0.18759031
       2800.6036      0.21917905
       2801.5054      0.23625148
       2802.4073      0.18437384
       2803.3092      0.16711217
       2804.2111      0.17620073
       2805.1130      0.26053994
       2806.0149      0.23978469
       2806.9167      0.24737468
       2807.8186      0.26758633
       2808.7205      0.15675975
       2809.6224      0.19525820
       2810.5243      0.27196492
       2811.4261      0.27773450
       2812.3280      0.20539586
       2813.2299      0.18137931
       2814.1318      0.25307304
       2815.0337      0.13233320
       2815.9355      0.25437873
       2816.8374      0.22917593
       2817.7393      0.22008429
       2818.6412      0.17394876
       2819.5431      0.18158464
       2820.4449      0.22945378
       2821.3468      0.15208102
       2822.2487      0.23390031
       2823.1506      0.18024675
       2824.0525      0.31754182
       2824.9543      0.22581500
       2825.8562      0.26910268
       2826.7581      0.28729377
       2827.6600      0.15168595
       2828.5619      0.24233334
       2829.4638      0.14327458
       2830.3656      0.16009150
       2831.2675      0.29400292
       2832.1694      0.16350903
       2833.0713      0.19707599
       2833.9732      0.19999412
       2834.8750      0.15947141
       2835.7769      0.31520888
       2836.6788      0.17412232
       2837.5807      0.18874139
       2838.4826      0.15883469
       2839.3844      0.19771586
       2840.2863      0.22095722
       2841.1882      0.18804381
       2842.0901      0.14530585
       2842.9920      0.17490856
       2843.8938      0.15789986
       2844.7957      0.17805884
       2845.6976      0.18136878
       2846.5995      0.24527982
       2847.5014      0.23682583
       2848.4032      0.26936606
       2849.3051      0.21103103
       2850.2070      0.22918816
       2851.1089      0.26832719
       2852.0108      0.13058744
       2852.9127      0.25409025
       2853.8145      0.33328460
       2854.7164      0.25990161
       2855.6183      0.20421654
       2856.5202      0.26113302
       2857.4221      0.25822723
       2858.3239      0.23302441
       2859.2258      0.27909281
       2860.1277      0.23171865
       2861.0296      0.24572312
       2861.9315      0.26110769
       2862.8333      0.25914047
       2863.7352      0.21374551
       2864.6371      0.21298143
       2865.5390      0.24938473
       2866.4409      0.23111930
       2867.3427      0.26174657
       2868.2446     0.095139995
       2869.1465      0.21691265
       2870.0484      0.13272382
       2870.9503     0.093885246
       2871.8521      0.23090491
       2872.7540      0.19084557
       2873.6559      0.19276163
       2874.5578      0.26554583
       2875.4597      0.26244705
       2876.3616      0.26845261
       2877.2634      0.22290846
       2878.1653      0.27131098
       2879.0672      0.24386042
       2879.9691      0.22953909
       2880.8710      0.16850516
       2881.7728      0.21178897
       2882.6747      0.29300288
       2883.5766      0.21446644
       2884.4785      0.20201313
       2885.3804      0.20204813
       2886.2822      0.17925490
       2887.1841      0.15725103
       2888.0860      0.24769319
       2888.9879      0.24908498
       2889.8898      0.23349866
       2890.7916      0.28061248
       2891.6935      0.24359304
       2892.5954      0.20329125
       2893.4973      0.27789018
       2894.3992      0.30215327
       2895.3010      0.11470965
       2896.2029      0.22714936
       2897.1048      0.28869687
       2898.0067      0.28080865
       2898.9086      0.32692193
       2899.8105      0.28554267
       2900.7123      0.23701438
       2901.6142      0.25013239
       2902.5161      0.31486397
       2903.4180      0.27270183
       2904.3199      0.27889193
       2905.2217      0.29710471
       2906.1236      0.29890935
       2907.0255      0.20850118
       2907.9274      0.30658255
       2908.8293      0.24182321
       2909.7311      0.26700719
       2910.6330      0.26740981
       2911.5349      0.17094968
       2912.4368      0.36199543
       2913.3387      0.30768212
       2914.2405      0.24399417
       2915.1424      0.33908335
       2916.0443      0.24290721
       2916.9462      0.24865995
       2917.8481      0.20743054
       2918.7499      0.25443525
       2919.6518      0.20370760
       2920.5537      0.28446699
       2921.4556      0.20110136
       2922.3575      0.27861393
       2923.2594      0.24716994
       2924.1612      0.33485481
       2925.0631      0.30249316
       2925.9650      0.42491304
       2926.8669      0.21551955
       2927.7688      0.23549257
       2928.6706      0.32670731
       2929.5725      0.23818082
       2930.4744      0.25790091
       2931.3763      0.18680353
       2932.2782      0.23191675
       2933.1800      0.31438251
       2934.0819      0.18926548
       2934.9838      0.19224701
       2935.8857      0.26152420
       2936.7876      0.25801119
       2937.6894      0.33590446
       2938.5913      0.20456364
       2939.4932      0.20206130
       2940.3951      0.25015154
       2941.2970      0.21983379
       2942.1988      0.27942743
       2943.1007      0.27766677
       2944.0026      0.28997391
       2944.9045      0.24828409
       2945.8064      0.24583835
       2946.7082      0.24821335
       2947.6101      0.19504761
       2948.5120      0.29871837
       2949.4139      0.29281721
       2950.3158      0.28966505
       2951.2177      0.24737956
       2952.1195      0.33348681
       2953.0214      0.34276086
       2953.9233      0.26707321
       2954.8252      0.34426960
       2955.7271      0.27334035
       2956.6289      0.32741670
       2957.5308      0.24474829
       2958.4327      0.23310261
       2959.3346      0.34889998
       2960.2365      0.33512257
       2961.1383      0.25638215
       2962.0402      0.29448099
       2962.9421      0.24033707
       2963.8440      0.21739944
       2964.7459      0.26683166
       2965.6477      0.28484179
       2966.5496      0.28941147
       2967.4515      0.25941983
       2968.3534      0.28924562
       2969.2553      0.25288743
       2970.1571      0.34012524
       2971.0590      0.31089838
       2971.9609      0.22448388
       2972.8628      0.32082245
       2973.7647      0.31228336
       2974.6666      0.28482523
       2975.5684      0.26087325
       2976.4703      0.25955889
       2977.3722      0.39409915
       2978.2741      0.34214072
       2979.1760      0.26586279
       2980.0778      0.25825746
       2980.9797      0.33662184
       2981.8816      0.28623964
       2982.7835      0.21614333
       2983.6854      0.29980900
       2984.5872      0.28863379
       2985.4891      0.20456691
       2986.3910      0.35067011
       2987.2929      0.30982168
       2988.1948      0.29758624
       2989.0966      0.36609705
       2989.9985      0.32811733
       2990.9004      0.26786959
       2991.8023      0.37602033
       2992.7042      0.36859961
       2993.6060      0.27694167
       2994.5079      0.34581393
       2995.4098      0.24166820
       2996.3117      0.26406944
       2997.2136      0.18008350
       2998.1155      0.31017891
       2999.0173      0.30761718
       2999.9192      0.33551368
       3000.8211      0.25222770
       3001.7230      0.25250363
       3002.6249      0.31275142
       3003.5267      0.33694217
       3004.4286      0.33684501
       3005.3305      0.30601132
       3006.2324      0.27383205
       3007.1343      0.25306984
       3008.0361      0.25162628
       3008.9380      0.36647199
       3009.8399      0.33720860
       3010.7418      0.37095870
       3011.6437      0.16284649
       3012.5455      0.25226979
       3013.4474      0.32031631
       3014.3493      0.22446246
       3015.2512      0.24346669
       3016.1531      0.24363920
       3017.0549      0.25904388
       3017.9568      0.18996206
       3018.8587      0.19103239
       3019.7606      0.26333039
       3020.6625      0.26213305
       3021.5644      0.29004569
       3022.4662      0.18513387
       3023.3681      0.20303641
       3024.2700      0.33226541
       3025.1719      0.27836375
       3026.0738      0.31970433
       3026.9756      0.33752294
       3027.8775      0.37784274
       3028.7794      0.32606016
       3029.6813      0.28511571
       3030.5832      0.29265441
       3031.4850      0.32298413
       3032.3869      0.31929938
       3033.2888      0.28161055
       3034.1907      0.29558575
       3035.0926      0.31585253
       3035.9944      0.34492827
       3036.8963      0.26288145
       3037.7982      0.30615684
       3038.7001      0.31540774
       3039.6020      0.37840360
       3040.5038      0.24838488
       3041.4057      0.32210532
       3042.3076      0.38603934
       3043.2095      0.26687119
       3044.1114      0.36448268
       3045.0133      0.32472776
       3045.9151      0.25096673
       3046.8170      0.31150668
       3047.7189      0.30143049
       3048.6208      0.40192386
       3049.5227      0.26435403
       3050.4245      0.21355892
       3051.3264      0.35898909
       3052.2283      0.38050828
       3053.1302      0.29747961
       3054.0321      0.33445494
       3054.9339      0.30385332
       3055.8358      0.27999682
       3056.7377      0.31206942
       3057.6396      0.33499983
       3058.5415      0.28739535
       3059.4433      0.32805436
       3060.3452      0.27204726
       3061.2471      0.34061761
       3062.1490      0.35129931
       3063.0509      0.25994916
       3063.9527      0.36370229
       3064.8546      0.30808821
       3065.7565      0.20241698
       3066.6584      0.32211333
       3067.5603      0.28941261
       3068.4622      0.30532067
       3069.3640      0.28243496
       3070.2659      0.26021825
       3071.1678      0.30110307
       3072.0697      0.25142057
       3072.9716      0.28366969
       3073.8734      0.36839867
       3074.7753      0.35485310
       3075.6772      0.33139387
       3076.5791      0.27821749
       3077.4810      0.43225202
       3078.3828      0.40830423
       3079.2847      0.34859757
       3080.1866      0.39496074
       3081.0885      0.39638520
       3081.9904      0.48197784
       3082.8922      0.28630436
       3083.7941      0.35263219
       3084.6960      0.36149187
       3085.5979      0.42319969
       3086.4998      0.39303522
       3087.4016      0.25503140
       3088.3035      0.39679351
       3089.2054      0.36350173
       3090.1073      0.25075465
       3091.0092      0.36823761
       3091.9111      0.34644246
       3092.8129      0.36240237
       3093.7148      0.31494841
       3094.6167      0.32477538
       3095.5186      0.25521129
       3096.4205      0.31773537
       3097.3223      0.43953876
       3098.2242      0.37544349
       3099.1261      0.41733958
       3100.0280      0.34089256
       3100.9299      0.43865305
       3101.8317      0.35017390
       3102.7336      0.44246584
       3103.6355      0.32484990
       3104.5374      0.42815587
       3105.4393      0.32625458
       3106.3411      0.44890982
       3107.2430      0.40358949
       3108.1449      0.37904871
       3109.0468      0.38076170
       3109.9487      0.40244713
       3110.8505      0.34186123
       3111.7524      0.39001168
       3112.6543      0.33268956
       3113.5562      0.36731334
       3114.4581      0.35907466
       3115.3600      0.43961601
       3116.2618      0.39886473
       3117.1637      0.35387492
       3118.0656      0.37355491
       3118.9675      0.27311518
       3119.8694      0.36056876
       3120.7712      0.33238362
       3121.6731      0.37272063
       3122.5750      0.33651579
       3123.4769      0.38424244
       3124.3788      0.36024018
       3125.2806      0.31937070
       3126.1825      0.35622127
       3127.0844      0.30236034
       3127.9863      0.40307185
       3128.8882      0.45961131
       3129.7900      0.39465642
       3130.6919      0.44516562
       3131.5938      0.38172030
       3132.4957      0.38968520
       3133.3976      0.39097245
       3134.2994      0.43957317
       3135.2013      0.34195053
       3136.1032      0.41918412
       3137.0051      0.45459097
       3137.9070      0.32042267
       3138.8089      0.30846444
       3139.7107      0.48372313
       3140.6126      0.41360444
       3141.5145      0.32851301
       3142.4164      0.35997125
       3143.3183      0.40365396
       3144.2201      0.36682207
       3145.1220      0.38290417
       3146.0239      0.36869900
       3146.9258      0.40470422
       3147.8277      0.37770191
       3148.7295      0.43345742
       3149.6314      0.40663735
       3150.5333      0.29241074
       3151.4352      0.51721184
       3152.3371      0.41523384
       3153.2389      0.37589937
       3154.1408      0.34440280
       3155.0427      0.43606606
       3155.9446      0.34495230
       3156.8465      0.46510900
       3157.7483      0.41448939
       3158.6502      0.37544508
       3159.5521      0.26536648
       3160.4540      0.29504202
       3161.3559      0.33444013
       3162.2577      0.38111038
       3163.1596      0.36268941
       3164.0615      0.33667671
       3164.9634      0.31728070
       3165.8653      0.39837551
       3166.7672      0.39663052
       3167.6690      0.38192664
       3168.5709      0.38311116
       3169.4728      0.39877360
       3170.3747      0.38007242
       3171.2766      0.34652624
       3172.1784      0.38108954
       3173.0803      0.34229165
       3173.9822      0.42450103
       3174.8841      0.45887504
       3175.7860      0.46384034
       3176.6878      0.43902461
       3177.5897      0.34574905
       3178.4916      0.41122726
       3179.3935      0.40457441
       3180.2954      0.29086247
       3181.1972      0.30278818
       3182.0991      0.26105752
       3183.0010      0.39330009
       3183.9029      0.40062067
       3184.8048      0.40141356
       3185.7066      0.32684267
       3186.6085      0.38500098
       3187.5104      0.50750487
       3188.4123      0.33772701
       3189.3142      0.43663468
       3190.2161      0.39991750
       3191.1179      0.41838147
       3192.0198      0.40349481
       3192.9217      0.31857799
       3193.8236      0.26441012
       3194.7255      0.30520605
       3195.6273      0.30210215
       3196.5292      0.34427447
       3197.4311      0.33513192
       3198.3330      0.40061036
       3199.2349      0.32262291
       3200.1367      0.35296762
       3201.0386      0.41567932
       3201.9405      0.39382615
       3202.8424      0.41744653
       3203.7443      0.36997317
       3204.6461      0.35336533
       3205.5480      0.38337643
       3206.4499      0.39988460
       3207.3518      0.38429969
       3208.2537      0.42843244
       3209.1555      0.40357746
       3210.0574      0.38598253
       3210.9593      0.34750521
       3211.8612      0.35367961
       3212.7631      0.33066065
       3213.6650      0.32032946
       3214.5668      0.32412605
       3215.4687      0.30311213
       3216.3706      0.33234728
       3217.2725      0.26033112
       3218.1744      0.35380653
       3219.0762      0.37773511
       3219.9781      0.31608057
       3220.8800      0.42410198
       3221.7819      0.39820047
       3222.6838      0.35150771
       3223.5856      0.44009064
       3224.4875      0.43021606
       3225.3894      0.36513724
       3226.2913      0.38331793
       3227.1932      0.32556944
       3228.0950      0.38165523
       3228.9969      0.38535593
       3229.8988      0.34579139
       3230.8007      0.35739583
       3231.7026      0.38857125
       3232.6044      0.30287968
       3233.5063      0.35778035
       3234.4082      0.33419823
       3235.3101      0.34650031
       3236.2120      0.32671552
       3237.1139      0.44141073
       3238.0157      0.33634661
       3238.9176      0.36522968
       3239.8195      0.37698470
       3240.7214      0.37519352
       3241.6233      0.41227987
       3242.5251      0.39854618
       3243.4270      0.38415835
       3244.3289      0.34903404
       3245.2308      0.39405311
       3246.1327      0.36812809
       3247.0345      0.39383840
       3247.9364      0.45316979
       3248.8383      0.36500936
       3249.7402      0.39735515
       3250.6421      0.39226643
       3251.5439      0.38721120
       3252.4458      0.37573177
       3253.3477      0.41696991
       3254.2496      0.37390399
       3255.1515      0.35724455
       3256.0533      0.47603872
       3256.9552      0.33020635
       3257.8571      0.45771450
       3258.7590      0.41372239
       3259.6609      0.46011193
       3260.5628      0.40860038
       3261.4646      0.42433085
       3262.3665      0.40030904
       3263.2684      0.32563458
       3264.1703      0.35385344
       3265.0722      0.31002755
       3265.9740      0.43496656
       3266.8759      0.41679738
       3267.7778      0.42036493
       3268.6797      0.39409286
       3269.5816      0.41818709
       3270.4834      0.40580833
       3271.3853      0.43069405
       3272.2872      0.43333910
       3273.1891      0.42135946
       3274.0910      0.32665837
       3274.9928      0.43433597
       3275.8947      0.37720729
       3276.7966      0.36411022
       3277.6985      0.37663411
       3278.6004      0.42573988
       3279.5022      0.40225783
       3280.4041      0.43825808
       3281.3060      0.34739021
       3282.2079      0.41299024
       3283.1098      0.39977151
       3284.0117      0.44021149
       3284.9135      0.41741435
       3285.8154      0.36161543
       3286.7173      0.35052685
       3287.6192      0.39988030
       3288.5211      0.52300159
       3289.4229      0.41748615
       3290.3248      0.37439593
       3291.2267      0.33226415
       3292.1286      0.38080709
       3293.0305      0.36886704
       3293.9323      0.46388431
       3294.8342      0.40558658
       3295.7361      0.39475282
       3296.6380      0.42485526
       3297.5399      0.41862938
       3298.4417      0.41795426
       3299.3436      0.36720359
       3300.2455      0.47738667
       3301.1474      0.42495662
       3302.0493      0.43328107
       3302.9511      0.44535937
       3303.8530      0.41248111
       3304.7549      0.30514196
       3305.6568      0.41189520
       3306.5587      0.44020656
       3307.4606      0.50382241
       3308.3624      0.43743286
       3309.2643      0.43170381
       3310.1662      0.42511010
       3311.0681      0.41267213
       3311.9700      0.40918232
       3312.8718      0.36332335
       3313.7737      0.43266397
       3314.6756      0.38517855
       3315.5775      0.46315576
       3316.4794      0.38853307
       3317.3812      0.38805074
       3318.2831      0.41483392
       3319.1850      0.42280123
       3320.0869      0.42725476
       3320.9888      0.36988772
       3321.8906      0.38167879
       3322.7925      0.41981931
       3323.6944      0.39368097
       3324.5963      0.36784741
       3325.4982      0.42453709
       3326.4000      0.37295520
       3327.3019      0.40812076
       3328.2038      0.36889001
       3329.1057      0.37017340
       3330.0076      0.50981445
       3330.9095      0.38906078
       3331.8113      0.33239150
       3332.7132      0.38492234
       3333.6151      0.45889730
       3334.5170      0.40127628
       3335.4189      0.35993906
       3336.3207      0.45110033
       3337.2226      0.36683028
       3338.1245      0.40804848
       3339.0264      0.44546404
       3339.9283      0.37676517
       3340.8301      0.44875683
       3341.7320      0.42662228
       3342.6339      0.43698575
       3343.5358      0.44387593
       3344.4377      0.47131860
       3345.3395      0.47960176
       3346.2414      0.41765897
       3347.1433      0.40469649
       3348.0452      0.38478807
       3348.9471      0.44458234
       3349.8489      0.40255301
       3350.7508      0.40813900
       3351.6527      0.39454475
       3352.5546      0.42671431
       3353.4565      0.38158730
       3354.3583      0.38028349
       3355.2602      0.38011738
       3356.1621      0.51820450
       3357.0640      0.47046020
       3357.9659      0.42629173
       3358.8678      0.43932421
       3359.7696      0.44322861
       3360.6715      0.38197361
       3361.5734      0.37681962
       3362.4753      0.36737130
       3363.3772      0.36800738
       3364.2790      0.37264292
       3365.1809      0.40865569
       3366.0828      0.30864817
       3366.9847      0.38225226
       3367.8866      0.44056596
       3368.7884      0.36623577
       3369.6903      0.43178504
       3370.5922      0.39711346
       3371.4941      0.34839102
       3372.3960      0.38160553
       3373.2978      0.35118484
       3374.1997      0.41208079
       3375.1016      0.44530695
       3376.0035      0.41161036
       3376.9054      0.40338724
       3377.8072      0.41781271
       3378.7091      0.41111900
       3379.6110      0.39748995
       3380.5129      0.43770246
       3381.4148      0.48614604
       3382.3167      0.36535761
       3383.2185      0.50187931
       3384.1204      0.39359338
       3385.0223      0.44074857
       3385.9242      0.47045236
       3386.8261      0.49209085
       3387.7279      0.47650391
       3388.6298      0.55795198
       3389.5317      0.48800068
       3390.4336      0.51535253
       3391.3355      0.50307571
       3392.2373      0.51799469
       3393.1392      0.46732307
       3394.0411      0.49775114
       3394.9430      0.48269993
       3395.8449      0.50571145
       3396.7467      0.47406048
       3397.6486      0.49333927
       3398.5505      0.55431736
       3399.4524      0.48683218
       3400.3543      0.52287373
       3401.2561      0.49533549
       3402.1580      0.52966529
       3403.0599      0.46793964
       3403.9618      0.48554670
       3404.8637      0.51887282
       3405.7656      0.51113804
       3406.6674      0.55878889
       3407.5693      0.47880437
       3408.4712      0.49657054
       3409.3731      0.54830014
       3410.2750      0.49054745
       3411.1768      0.54213032
       3412.0787      0.50553049
       3412.9806      0.52356464
       3413.8825      0.51698489
       3414.7844      0.50791828
       3415.6862      0.45207609
       3416.5881      0.48422846
       3417.4900      0.49551118
       3418.3919      0.51130347
       3419.2938      0.51793299
       3420.1956      0.58161923
       3421.0975      0.58875883
       3421.9994      0.55163447
       3422.9013      0.52141638
       3423.8032      0.55414033
       3424.7050      0.55373527
       3425.6069      0.47803447
       3426.5088      0.49814572
       3427.4107      0.51764974
       3428.3126      0.51901002
       3429.2145      0.49907484
       3430.1163      0.57607032
       3431.0182      0.61170045
       3431.9201      0.48935881
       3432.8220      0.54807194
       3433.7239      0.59485045
       3434.6257      0.47827656
       3435.5276      0.48906495
       3436.4295      0.45470996
       3437.3314      0.46505099
       3438.2333      0.59736501
       3439.1351      0.56956994
       3440.0370      0.43650083
       3440.9389      0.52092469
       3441.8408      0.47747083
       3442.7427      0.46690492
       3443.6445      0.44322022
       3444.5464      0.45857530
       3445.4483      0.53435894
       3446.3502      0.46401637
       3447.2521      0.50757450
       3448.1539      0.50195420
       3449.0558      0.51827922
       3449.9577      0.55160683
       3450.8596      0.49637936
       3451.7615      0.48599025
       3452.6634      0.41809885
       3453.5652      0.58994009
       3454.4671      0.49252383
       3455.3690      0.52000440
       3456.2709      0.47734837
       3457.1728      0.52285566
       3458.0746      0.46493377
       3458.9765      0.55518895
       3459.8784      0.46850982
       3460.7803      0.47929562
       3461.6822      0.50809650
       3462.5840      0.47514522
       3463.4859      0.45619389
       3464.3878      0.51063191
       3465.2897      0.49162561
       3466.1916      0.53213869
       3467.0934      0.49171661
       3467.9953      0.49727196
       3468.8972      0.53690248
       3469.7991      0.42171913
       3470.7010      0.48693261
       3471.6028      0.49791884
       3472.5047      0.55297618
       3473.4066      0.45764820
       3474.3085      0.50614145
       3475.2104      0.45191978
       3476.1123      0.50753491
       3477.0141      0.40234342
       3477.9160      0.50740768
       3478.8179      0.47175165
       3479.7198      0.45882948
       3480.6217      0.51903793
       3481.5235      0.53482915
       3482.4254      0.43755005
       3483.3273      0.49386246
       3484.2292      0.48804573
       3485.1311      0.49355202
       3486.0329      0.45349127
       3486.9348      0.43199774
       3487.8367      0.45992510
       3488.7386      0.62163842
       3489.6405      0.47731264
       3490.5423      0.47968602
       3491.4442      0.54282220
       3492.3461      0.52197315
       3493.2480      0.50708808
       3494.1499      0.48767804
       3495.0517      0.46601248
       3495.9536      0.51885818
       3496.8555      0.55467243
       3497.7574      0.47978595
       3498.6593      0.47753892
       3499.5612      0.49304252
       3500.4630      0.52288558
       3501.3649      0.54446110
       3502.2668      0.48725199
       3503.1687      0.54245146
       3504.0706      0.58329095
       3504.9724      0.52356873
       3505.8743      0.53071454
       3506.7762      0.47565105
       3507.6781      0.53238707
       3508.5800      0.55173066
       3509.4818      0.51630128
       3510.3837      0.44341304
       3511.2856      0.50093200
       3512.1875      0.54929549
       3513.0894      0.53299500
       3513.9912      0.54436015
       3514.8931      0.50948457
       3515.7950      0.54806416
       3516.6969      0.49886285
       3517.5988      0.44063106
       3518.5006      0.57044110
       3519.4025      0.49305498
       3520.3044      0.61277897
       3521.2063      0.56302369
       3522.1082      0.46513113
       3523.0101      0.50876119
       3523.9119      0.47199894
       3524.8138      0.47844454
       3525.7157      0.51624812
       3526.6176      0.58485532
       3527.5195      0.45929317
       3528.4213      0.55656497
       3529.3232      0.53419376
       3530.2251      0.57437420
       3531.1270      0.57101081
       3532.0289      0.49881806
       3532.9307      0.54052942
       3533.8326      0.57792212
       3534.7345      0.57732742
       3535.6364      0.59552535
       3536.5383      0.52161339
       3537.4401      0.45962000
       3538.3420      0.57976024
       3539.2439      0.52701450
       3540.1458      0.53463322
       3541.0477      0.55669625
       3541.9495      0.57283450
       3542.8514      0.52943421
       3543.7533      0.55041449
       3544.6552      0.62577436
       3545.5571      0.62487944
       3546.4590      0.47968854
       3547.3608      0.59127329
       3548.2627      0.53813247
       3549.1646      0.65387455
       3550.0665      0.55295232
       3550.9684      0.52327089
       3551.8702      0.58749350
       3552.7721      0.61198794
       3553.6740      0.57029977
       3554.5759      0.57639051
       3555.4778      0.60621217
       3556.3796      0.58388093
       3557.2815      0.41419571
       3558.1834      0.50709538
       3559.0853      0.53830189
       3559.9872      0.61173801
       3560.8890      0.54891013
       3561.7909      0.61140172
       3562.6928      0.50064683
       3563.5947      0.57891523
       3564.4966      0.62010295
       3565.3984      0.52102800
       3566.3003      0.52050143
       3567.2022      0.54072706
       3568.1041      0.54794447
       3569.0060      0.55330806
       3569.9078      0.58007255
       3570.8097      0.53147163
       3571.7116      0.55471361
       3572.6135      0.48167751
       3573.5154      0.52349787
       3574.4173      0.50968313
       3575.3191      0.51906955
       3576.2210      0.53483000
       3577.1229      0.61463685
       3578.0248      0.56173709
       3578.9267      0.56724624
       3579.8285      0.60594419
       3580.7304      0.50902021
       3581.6323      0.60733313
       3582.5342      0.48304941
       3583.4361      0.53637165
       3584.3379      0.46708939
       3585.2398      0.52897044
       3586.1417      0.49193011
       3587.0436      0.56427082
       3587.9455      0.49882942
       3588.8473      0.48418618
       3589.7492      0.51199395
       3590.6511      0.52310224
       3591.5530      0.52212193
       3592.4549      0.45942302
       3593.3567      0.53407808
       3594.2586      0.62236976
       3595.1605      0.65180150
       3596.0624      0.51804626
       3596.9643      0.53843708
       3597.8662      0.69016815
       3598.7680      0.63617846
       3599.6699      0.62562157
       3600.5718      0.59014635
       3601.4737      0.60247384
       3602.3756      0.61623234
       3603.2774      0.67515337
       3604.1793      0.59068195
       3605.0812      0.58859493
       3605.9831      0.55343165
       3606.8850      0.49143527
       3607.7868      0.50941557
       3608.6887      0.51147320
       3609.5906      0.54381447
       3610.4925      0.48695290
       3611.3944      0.51550250
       3612.2962      0.55580533
       3613.1981      0.60107947
       3614.1000      0.56720366
       3615.0019      0.52201933
       3615.9038      0.71553725
       3616.8056      0.52974289
       3617.7075      0.64728690
       3618.6094      0.56052542
       3619.5113      0.57609988
       3620.4132      0.60087443
       3621.3151      0.54847559
       3622.2169      0.56684987
       3623.1188      0.58705543
       3624.0207      0.52941320
       3624.9226      0.54826733
       3625.8245      0.54566453
       3626.7263      0.51309776
       3627.6282      0.61528974
       3628.5301      0.75375119
       3629.4320      0.68446205
       3630.3339      0.61391953
       3631.2357      0.63401405
       3632.1376      0.64940708
       3633.0395      0.60783459
       3633.9414      0.63438209
       3634.8433      0.58851188
       3635.7451      0.60882180
       3636.6470      0.48707732
       3637.5489      0.61749148
       3638.4508      0.60204068
       3639.3527      0.62179865
       3640.2545      0.70103655
       3641.1564      0.60309750
       3642.0583      0.58530554
       3642.9602      0.61582990
       3643.8621      0.59696868
       3644.7640      0.60861464
       3645.6658      0.53590798
       3646.5677      0.62725792
       3647.4696      0.61480424
       3648.3715      0.56446077
       3649.2734      0.54198101
       3650.1752      0.58736108
       3651.0771      0.63875249
       3651.9790      0.60971295
       3652.8809      0.63009684
       3653.7828      0.60770724
       3654.6846      0.56167424
       3655.5865      0.63196965
       3656.4884      0.57272786
       3657.3903      0.65316105
       3658.2922      0.60912185
       3659.1940      0.54814499
       3660.0959      0.67316596
       3660.9978      0.65472718
       3661.8997      0.62582766
       3662.8016      0.65282329
       3663.7034      0.63024530
       3664.6053      0.57466286
       3665.5072      0.63527691
       3666.4091      0.64201106
       3667.3110      0.65850875
       3668.2129      0.61027905
       3669.1147      0.63947168
       3670.0166      0.71795266
       3670.9185      0.68277914
       3671.8204      0.63759572
       3672.7223      0.62282497
       3673.6241      0.61259611
       3674.5260      0.63497837
       3675.4279      0.63246945
       3676.3298      0.60003567
       3677.2317      0.59020632
       3678.1335      0.57355701
       3679.0354      0.65984947
       3679.9373      0.57542608
       3680.8392      0.61249750
       3681.7411      0.58391620
       3682.6429      0.64542992
       3683.5448      0.61351240
       3684.4467      0.59823194
       3685.3486      0.56391065
       3686.2505      0.62678394
       3687.1523      0.57698305
       3688.0542      0.56288466
       3688.9561      0.67267728
       3689.8580      0.66266686
       3690.7599      0.63516679
       3691.6618      0.56963247
       3692.5636      0.56899634
       3693.4655      0.66655851
       3694.3674      0.64802509
       3695.2693      0.76895109
       3696.1712      0.61466538
       3697.0730      0.71056983
       3697.9749      0.65322348
       3698.8768      0.71236000
       3699.7787      0.59768820
       3700.6806      0.76972466
       3701.5824      0.69908628
       3702.4843      0.67562770
       3703.3862      0.73725129
       3704.2881      0.72819640
       3705.1900      0.62975056
       3706.0918      0.72344373
       3706.9937      0.65409376
       3707.8956      0.67900282
       3708.7975      0.64321619
       3709.6994      0.78178877
       3710.6012      0.68596153
       3711.5031      0.74707750
       3712.4050      0.86267343
       3713.3069      0.73103151
       3714.2088      0.92999835
       3715.1107      0.95893374
       3716.0125      0.86917390
       3716.9144      0.81884409
       3717.8163      0.94634985
       3718.7182      0.94141735
       3719.6201      0.96726538
       3720.5219      0.93285900
       3721.4238       1.0327774
       3722.3257       1.0212541
       3723.2276       1.2950535
       3724.1295       1.5883001
       3725.0313       1.7687128
       3725.9332       1.9228964
       3726.8351       1.8459173
       3727.7370       1.7990543
       3728.6389       2.0518450
       3729.5407       2.0245317
       3730.4426       1.7631600
       3731.3445       1.5261567
       3732.2464       1.4005808
       3733.1483      0.98517528
       3734.0501      0.95724204
       3734.9520      0.82215833
       3735.8539      0.66642825
       3736.7558      0.72148491
       3737.6577      0.73083152
       3738.5596      0.75545838
       3739.4614      0.75779535
       3740.3633      0.80219360
       3741.2652      0.89880522
       3742.1671      0.79432814
       3743.0690      0.77103061
       3743.9708      0.88495496
       3744.8727      0.81702813
       3745.7746      0.78631509
       3746.6765      0.71077082
       3747.5784      0.70175664
       3748.4802      0.62391785
       3749.3821      0.64375038
       3750.2840      0.61081089
       3751.1859      0.58374777
       3752.0878      0.72821088
       3752.9896      0.70479450
       3753.8915      0.76813554
       3754.7934      0.80090392
       3755.6953      0.85417237
       3756.5972      0.89959406
       3757.4990      0.90565896
       3758.4009      0.88338771
       3759.3028      0.89841877
       3760.2047      0.92187875
       3761.1066      0.86600246
       3762.0085      0.85378500
       3762.9103      0.80067104
       3763.8122      0.88973511
       3764.7141      0.84063758
       3765.6160      0.79883740
       3766.5179      0.78288294
       3767.4197      0.78048155
       3768.3216      0.78493311
       3769.2235      0.70075048
       3770.1254      0.70100451
       3771.0273      0.64344601
       3771.9291      0.73392615
       3772.8310      0.74834033
       3773.7329      0.79215117
       3774.6348      0.77957428
       3775.5367      0.86398459
       3776.4385      0.80961655
       3777.3404      0.94728881
       3778.2423       1.0371579
       3779.1442      0.86859215
       3780.0461       1.1026583
       3780.9479       1.1007261
       3781.8498       1.1376511
       3782.7517       1.0851187
       3783.6536       1.1133321
       3784.5555       1.1078431
       3785.4573       1.0630370
       3786.3592      0.99938249
       3787.2611       1.0295887
       3788.1630       1.0923291
       3789.0649       1.0676798
       3789.9668      0.87979495
       3790.8686      0.92920317
       3791.7705      0.91526692
       3792.6724      0.89132272
       3793.5743      0.84512425
       3794.4762      0.71615121
       3795.3780      0.71526682
       3796.2799      0.56225900
       3797.1818      0.60780712
       3798.0837      0.63940025
       3798.9856      0.72849217
       3799.8874      0.83502218
       3800.7893      0.89866641
       3801.6912      0.84940024
       3802.5931      0.93155926
       3803.4950      0.89344942
       3804.3968       1.0191744
       3805.2987       1.0234590
       3806.2006       1.1227510
       3807.1025       1.2433215
       3808.0044       1.1327076
       3808.9062       1.0938666
       3809.8081       1.1857651
       3810.7100       1.1891910
       3811.6119       1.2739033
       3812.5138       1.0383080
       3813.4157       1.1266479
       3814.3175       1.0983955
       3815.2194       1.1079382
       3816.1213       1.1893425
       3817.0232       1.1799317
       3817.9251       1.1712195
       3818.8269       1.1373872
       3819.7288       1.1367098
       3820.6307       1.0956881
       3821.5326       1.1528005
       3822.4345      0.86609811
       3823.3363      0.94197179
       3824.2382      0.86343521
       3825.1401      0.90377483
       3826.0420      0.89543015
       3826.9439      0.81217705
       3827.8457      0.79896766
       3828.7476      0.77303851
       3829.6495      0.74197292
       3830.5514      0.66745963
       3831.4533      0.77375378
       3832.3551      0.61009866
       3833.2570      0.66828449
       3834.1589      0.64164928
       3835.0608      0.61637144
       3835.9627      0.69204116
       3836.8646      0.81159453
       3837.7664      0.65722629
       3838.6683      0.77414977
       3839.5702      0.83027482
       3840.4721      0.88436518
       3841.3740      0.95452479
       3842.2758      0.94054167
       3843.1777      0.99651437
       3844.0796       1.1459821
       3844.9815       1.1347602
       3845.8834       1.0593839
       3846.7852       1.1936478
       3847.6871       1.2240754
       3848.5890       1.2254282
       3849.4909       1.2971660
       3850.3928       1.2895768
       3851.2946       1.2101785
       3852.1965       1.1673749
       3853.0984       1.2575726
       3854.0003       1.2847551
       3854.9022       1.2601642
       3855.8040       1.2843361
       3856.7059       1.3616248
       3857.6078       1.2332148
       3858.5097       1.1864355
       3859.4116       1.2562182
       3860.3135       1.2554374
       3861.2153       1.3027526
       3862.1172       1.4678774
       3863.0191       1.3291766
       3863.9210       1.4011755
       3864.8229       1.5453125
       3865.7247       1.4826037
       3866.6266       1.3679988
       3867.5285       1.4427483
       3868.4304       1.4938836
       3869.3323       1.3279515
       3870.2341       1.3666581
       3871.1360       1.2981824
       3872.0379       1.3261735
       3872.9398       1.0941732
       3873.8417       1.2009287
       3874.7435       1.2696744
       3875.6454       1.2707403
       3876.5473       1.0999826
       3877.4492       1.2058140
       3878.3511       1.1774501
       3879.2529       1.0528337
       3880.1548       1.0431179
       3881.0567       1.0183888
       3881.9586       1.0525656
       3882.8605      0.92953550
       3883.7624      0.87261669
       3884.6642      0.82016659
       3885.5661      0.73746910
       3886.4680      0.81960278
       3887.3699      0.71936927
       3888.2718      0.90002624
       3889.1736      0.82341087
       3890.0755      0.81220918
       3890.9774      0.91460722
       3891.8793      0.92594998
       3892.7812      0.98133361
       3893.6830       1.0053767
       3894.5849       1.0415575
       3895.4868       1.1004933
       3896.3887       1.0534804
       3897.2906       1.2818265
       3898.1924       1.2144830
       3899.0943       1.1816751
       3899.9962       1.0949760
       3900.8981       1.3368526
       3901.8000       1.2467214
       3902.7018       1.3417362
       3903.6037       1.2463950
       3904.5056       1.3144620
       3905.4075       1.3550121
       3906.3094       1.3838466
       3907.2113       1.1775346
       3908.1131       1.3976233
       3909.0150       1.4456706
       3909.9169       1.1721182
       3910.8188       1.2828715
       3911.7207       1.3115885
       3912.6225       1.3909706
       3913.5244       1.4053408
       3914.4263       1.3814641
       3915.3282       1.3732068
       3916.2301       1.3409995
       3917.1319       1.2816547
       3918.0338       1.2544020
       3918.9357       1.3318527
       3919.8376       1.2602533
       3920.7395       1.3305423
       3921.6413       1.2097404
       3922.5432       1.3428871
       3923.4451       1.1172355
       3924.3470       1.1402820
       3925.2489       1.2748499
       3926.1507       1.1576511
       3927.0526      0.95192382
       3927.9545      0.96393443
       3928.8564      0.80827546
       3929.7583      0.87176617
       3930.6602      0.76257551
       3931.5620      0.77827740
       3932.4639      0.77278120
       3933.3658      0.93814322
       3934.2677       1.0065255
       3935.1696      0.90819953
       3936.0714       1.1294513
       3936.9733       1.1750234
       3937.8752       1.1409427
       3938.7771       1.1236871
       3939.6790       1.3220076
       3940.5808       1.2166300
       3941.4827       1.1203022
       3942.3846       1.2743154
       3943.2865       1.2819253
       3944.1884       1.3108432
       3945.0902       1.2635054
       3945.9921       1.1730611
       3946.8940       1.3356295
       3947.7959       1.2425479
       3948.6978       1.1593663
       3949.5996       1.2357236
       3950.5015       1.2095138
       3951.4034       1.2622624
       3952.3053       1.1856459
       3953.2072       1.1757609
       3954.1091       1.1417201
       3955.0109       1.2284767
       3955.9128       1.2199725
       3956.8147       1.2173686
       3957.7166       1.1574008
       3958.6185       1.0398522
       3959.5203       1.0148213
       3960.4222      0.97841881
       3961.3241      0.78375058
       3962.2260      0.87608671
       3963.1279      0.82005623
       3964.0297      0.66857324
       3964.9316      0.76382318
       3965.8335      0.73369001
       3966.7354      0.70054185
       3967.6373      0.71641090
       3968.5391      0.74500621
       3969.4410      0.75258498
       3970.3429      0.77976401
       3971.2448      0.86332870
       3972.1467      0.99297407
       3973.0485       1.1566654
       3973.9504       1.1328010
       3974.8523       1.1828681
       3975.7542       1.0370356
       3976.6561       1.1545141
       3977.5579       1.0692209
       3978.4598       1.2428507
       3979.3617       1.2644523
       3980.2636       1.4084135
       3981.1655       1.2852337
       3982.0674       1.2159884
       3982.9692       1.4095528
       3983.8711       1.2581997
       3984.7730       1.2759087
       3985.6749       1.3523172
       3986.5768       1.3886329
       3987.4786       1.4015308
       3988.3805       1.4434033
       3989.2824       1.5966850
       3990.1843       1.5071638
       3991.0862       1.3976652
       3991.9880       1.4347494
       3992.8899       1.4431168
       3993.7918       1.5462854
       3994.6937       1.3235023
       3995.5956       1.3504907
       3996.4974       1.4631504
       3997.3993       1.4939257
       3998.3012       1.4240773
       3999.2031       1.4357590
       4000.1050       1.3271675
       4001.0068       1.4414215
       4001.9087       1.5207945
       4002.8106       1.3978106
       4003.7125       1.4231328
       4004.6144       1.4951615
       4005.5163       1.6830980
       4006.4181       1.6440477
       4007.3200       1.6660073
       4008.2219       1.5716249
       4009.1238       1.5932926
       4010.0257       1.6714278
       4010.9275       1.5653396
       4011.8294       1.5219574
       4012.7313       1.5423512
       4013.6332       1.6245612
       4014.5351       1.4024661
       4015.4369       1.4723878
       4016.3388       1.7081740
       4017.2407       1.6562821
       4018.1426       1.5494065
       4019.0445       1.4469720
       4019.9463       1.6065562
       4020.8482       1.5017255
       4021.7501       1.3763783
       4022.6520       1.4976139
       4023.5539       1.4519314
       4024.4557       1.4542109
       4025.3576       1.4385867
       4026.2595       1.6448468
       4027.1614       1.5394327
       4028.0633       1.3635729
       4028.9652       1.4748337
       4029.8670       1.4795375
       4030.7689       1.3702672
       4031.6708       1.4395514
       4032.5727       1.5644473
       4033.4746       1.6395605
       4034.3764       1.5792184
       4035.2783       1.5140956
       4036.1802       1.6005251
       4037.0821       1.6881480
       4037.9840       1.5802712
       4038.8858       1.5098621
       4039.7877       1.5261644
       4040.6896       1.5591653
       4041.5915       1.5852545
       4042.4934       1.4893923
       4043.3952       1.5659511
       4044.2971       1.5989348
       4045.1990       1.8081513
       4046.1009       1.6679690
       4047.0028       1.6235289
       4047.9046       1.6133049
       4048.8065       1.5486383
       4049.7084       1.4358654
       4050.6103       1.5412056
       4051.5122       1.5242010
       4052.4141       1.7139189
       4053.3159       1.5764263
       4054.2178       1.5333782
       4055.1197       1.6797768
       4056.0216       1.5817530
       4056.9235       1.4809058
       4057.8253       1.4226219
       4058.7272       1.7602884
       4059.6291       1.5389030
       4060.5310       1.5002356
       4061.4329       1.7238364
       4062.3347       1.6610069
       4063.2366       1.7945520
       4064.1385       1.8217268
       4065.0404       1.7398557
       4065.9423       1.6496355
       4066.8441       1.6106662
       4067.7460       1.6534201
       4068.6479       1.7116215
       4069.5498       1.5212916
       4070.4517       1.5992026
       4071.3535       1.3633026
       4072.2554       1.4475027
       4073.1573       1.6541950
       4074.0592       1.6713261
       4074.9611       1.5643155
       4075.8630       1.5257433
       4076.7648       1.3615026
       4077.6667       1.5288250
       4078.5686       1.5245678
       4079.4705       1.5338973
       4080.3724       1.4879183
       4081.2742       1.5201592
       4082.1761       1.5538799
       4083.0780       1.7044701
       4083.9799       1.5121113
       4084.8818       1.3574288
       4085.7836       1.4283527
       4086.6855       1.3904972
       4087.5874       1.4619044
       4088.4893       1.3979853
       4089.3912       1.3986337
       4090.2930       1.2645572
       4091.1949       1.1460159
       4092.0968       1.1130240
       4092.9987       1.0837079
       4093.9006       1.1891755
       4094.8024       1.0633498
       4095.7043       1.0985989
       4096.6062      0.98050702
       4097.5081       1.0590640
       4098.4100       1.1201014
       4099.3119       1.1722627
       4100.2137       1.2767192
       4101.1156       1.2372505
       4102.0175       1.3580675
       4102.9194       1.2228938
       4103.8213       1.3478996
       4104.7231       1.3636262
       4105.6250       1.4575822
       4106.5269       1.3842831
       4107.4288       1.4808968
       4108.3307       1.5427383
       4109.2325       1.4172756
       4110.1344       1.5901060
       4111.0363       1.4207222
       4111.9382       1.4661900
       4112.8401       1.4225124
       4113.7419       1.4822486
       4114.6438       1.4057617
       4115.5457       1.4895715
       4116.4476       1.5601427
       4117.3495       1.5330803
       4118.2513       1.5276944
       4119.1532       1.3844107
       4120.0551       1.5470377
       4120.9570       1.3633115
       4121.8589       1.3969512
       4122.7608       1.4109323
       4123.6626       1.6172445
       4124.5645       1.2682569
       4125.4664       1.5767652
       4126.3683       1.3492813
       4127.2702       1.5053686
       4128.1720       1.6548297
       4129.0739       1.6935864
       4129.9758       1.6198703
       4130.8777       1.7336791
       4131.7796       1.5014353
       4132.6814       1.6672985
       4133.5833       1.5520715
       4134.4852       1.6275457
       4135.3871       1.6716470
       4136.2890       1.6684792
       4137.1908       1.5703380
       4138.0927       1.4562417
       4138.9946       1.5770372
       4139.8965       1.5537046
       4140.7984       1.6802777
       4141.7002       1.6098507
       4142.6021       1.6078478
       4143.5040       1.5777157
       4144.4059       1.7986625
       4145.3078       1.6512682
       4146.2097       1.5487395
       4147.1115       1.4358731
       4148.0134       1.5220880
       4148.9153       1.6609431
       4149.8172       1.6490989
       4150.7191       1.4954882
       4151.6209       1.5894362
       4152.5228       1.5321656
       4153.4247       1.6541964
       4154.3266       1.5747033
       4155.2285       1.6002670
       4156.1303       1.6414605
       4157.0322       1.7725291
       4157.9341       1.6612250
       4158.8360       1.5001145
       4159.7379       1.3788718
       4160.6397       1.5238280
       4161.5416       1.3921348
       4162.4435       1.4114557
       4163.3454       1.4682732
       4164.2473       1.5102019
       4165.1491       1.3857693
       4166.0510       1.5175240
       4166.9529       1.3412018
       4167.8548       1.5133853
       4168.7567       1.3522822
       4169.6586       1.6293858
       4170.5604       1.5278420
       4171.4623       1.5718329
       4172.3642       1.5628667
       4173.2661       1.6282001
       4174.1680       1.5873421
       4175.0698       1.5202285
       4175.9717       1.4995788
       4176.8736       1.5561354
       4177.7755       1.5087593
       4178.6774       1.4912227
       4179.5792       1.7515736
       4180.4811       1.5918861
       4181.3830       1.6184140
       4182.2849       1.6559990
       4183.1868       1.6776584
       4184.0886       1.6427501
       4184.9905       1.4675711
       4185.8924       1.6262921
       4186.7943       1.6099327
       4187.6962       1.7341195
       4188.5980       1.6910286
       4189.4999       1.6816207
       4190.4018       1.5981474
       4191.3037       1.4449379
       4192.2056       1.5114107
       4193.1074       1.5381989
       4194.0093       1.6048833
       4194.9112       1.4901604
       4195.8131       1.5853085
       4196.7150       1.6651801
       4197.6169       1.6042619
       4198.5187       1.6176172
       4199.4206       1.6631865
       4200.3225       1.6471106
       4201.2244       1.6468800
       4202.1263       1.6471551
       4203.0281       1.5348801
       4203.9300       1.6568184
       4204.8319       1.5766861
       4205.7338       1.5397154
       4206.6357       1.5387490
       4207.5375       1.7479492
       4208.4394       1.6235827
       4209.3413       1.5055809
       4210.2432       1.6933411
       4211.1451       1.7755491
       4212.0469       1.5653287
       4212.9488       1.5190265
       4213.8507       1.6086063
       4214.7526       1.5583526
       4215.6545       1.5170221
       4216.5563       1.3128847
       4217.4582       1.5002483
       4218.3601       1.4170096
       4219.2620       1.6239050
       4220.1639       1.5720979
       4221.0658       1.5863339
       4221.9676       1.7667607
       4222.8695       1.7653104
       4223.7714       1.5440417
       4224.6733       1.5499178
       4225.5752       1.5972394
       4226.4770       1.5016180
       4227.3789       1.5709703
       4228.2808       1.5663676
       4229.1827       1.6436173
       4230.0846       1.5568192
       4230.9864       1.6597024
       4231.8883       1.6011744
       4232.7902       1.6010401
       4233.6921       1.8108514
       4234.5940       1.7442453
       4235.4958       1.8038774
       4236.3977       1.6169537
       4237.2996       1.6366753
       4238.2015       1.5847532
       4239.1034       1.6091499
       4240.0052       1.6849264
       4240.9071       1.5061694
       4241.8090       1.5789666
       4242.7109       1.5497510
       4243.6128       1.6308780
       4244.5147       1.3971806
       4245.4165       1.5016080
       4246.3184       1.6310006
       4247.2203       1.5428163
       4248.1222       1.6065386
       4249.0241       1.6027173
       4249.9259       1.5125200
       4250.8278       1.7566782
       4251.7297       1.7155591
       4252.6316       1.5359782
       4253.5335       1.5788766
       4254.4353       1.6549754
       4255.3372       1.6891863
       4256.2391       1.7508375
       4257.1410       1.7694012
       4258.0429       1.6740980
       4258.9447       1.6229089
       4259.8466       1.5992170
       4260.7485       1.5416159
       4261.6504       1.6053613
       4262.5523       1.6345945
       4263.4541       1.6319939
       4264.3560       1.5845539
       4265.2579       1.6398894
       4266.1598       1.4012485
       4267.0617       1.6725746
       4267.9636       1.6971299
       4268.8654       1.6948087
       4269.7673       1.8523306
       4270.6692       1.6792742
       4271.5711       1.7490796
       4272.4730       1.8207978
       4273.3748       1.8812918
       4274.2767       1.6409468
       4275.1786       1.4933287
       4276.0805       1.5892680
       4276.9824       1.6343950
       4277.8842       1.6902771
       4278.7861       1.6742229
       4279.6880       1.5603268
       4280.5899       1.4902880
       4281.4918       1.5316908
       4282.3936       1.7006590
       4283.2955       1.6918421
       4284.1974       1.5163713
       4285.0993       1.5205895
       4286.0012       1.5877503
       4286.9030       1.6327630
       4287.8049       1.5581868
       4288.7068       1.6598733
       4289.6087       1.3841599
       4290.5106       1.4572980
       4291.4125       1.4493406
       4292.3143       1.4699852
       4293.2162       1.4887804
       4294.1181       1.4525875
       4295.0200       1.4828131
       4295.9219       1.5160023
       4296.8237       1.6126142
       4297.7256       1.4330062
       4298.6275       1.4371872
       4299.5294       1.4064087
       4300.4313       1.3027042
       4301.3331       1.5476344
       4302.2350       1.5003955
       4303.1369       1.7564815
       4304.0388       1.6638978
       4304.9407       1.5937198
       4305.8425       1.6984752
       4306.7444       1.5665321
       4307.6463       1.7884943
       4308.5482       1.6253233
       4309.4501       1.7583729
       4310.3519       1.7170100
       4311.2538       1.4680208
       4312.1557       1.6319001
       4313.0576       1.5870752
       4313.9595       1.4977084
       4314.8614       1.5406434
       4315.7632       1.5169394
       4316.6651       1.5512743
       4317.5670       1.3915844
       4318.4689       1.4066218
       4319.3708       1.5942025
       4320.2726       1.4998039
       4321.1745       1.5599544
       4322.0764       1.6367037
       4322.9783       1.4909262
       4323.8802       1.5111609
       4324.7820       1.4462928
       4325.6839       1.4291550
       4326.5858       1.4514303
       4327.4877       1.4742454
       4328.3896       1.4042017
       4329.2914       1.3727980
       4330.1933       1.4568295
       4331.0952       1.3625198
       4331.9971       1.2097994
       4332.8990       1.4312605
       4333.8008       1.3778803
       4334.7027       1.4741790
       4335.6046       1.4569333
       4336.5065       1.5908390
       4337.4084       1.5029825
       4338.3103       1.5576129
       4339.2121       1.5894962
       4340.1140       1.5431558
       4341.0159       1.5470603
       4341.9178       1.5211883
       4342.8197       1.5907933
       4343.7215       1.6153510
       4344.6234       1.6623895
       4345.5253       1.6829063
       4346.4272       1.5595208
       4347.3291       1.6583860
       4348.2309       1.7073542
       4349.1328       1.6072608
       4350.0347       1.7171224
       4350.9366       1.6136264
       4351.8385       1.8097256
       4352.7403       1.8544256
       4353.6422       1.9557878
       4354.5441       1.8088081
       4355.4460       1.7904456
       4356.3479       1.7149675
       4357.2497       1.7646453
       4358.1516       1.6409750
       4359.0535       1.6920793
       4359.9554       1.4825775
       4360.8573       1.5130610
       4361.7592       1.6128322
       4362.6610       1.4591929
       4363.5629       1.6833000
       4364.4648       1.7475156
       4365.3667       1.5891442
       4366.2686       1.7122466
       4367.1704       1.6741978
       4368.0723       1.7136200
       4368.9742       1.6059154
       4369.8761       1.6077094
       4370.7780       1.3362708
       4371.6798       1.5939670
       4372.5817       1.5298603
       4373.4836       1.4906693
       4374.3855       1.5812894
       4375.2874       1.4517566
       4376.1892       1.6320709
       4377.0911       1.7789824
       4377.9930       1.6480596
       4378.8949       1.6631011
       4379.7968       1.6840619
       4380.6986       1.6877681
       4381.6005       1.6637542
       4382.5024       1.6361753
       4383.4043       1.6729620
       4384.3062       1.7067443
       4385.2080       1.6674425
       4386.1099       1.6320244
       4387.0118       1.6954020
       4387.9137       1.5533162
       4388.8156       1.7586406
       4389.7175       1.7466315
       4390.6193       1.7106920
       4391.5212       1.5794446
       4392.4231       1.6138327
       4393.3250       1.7059541
       4394.2269       1.6939649
       4395.1287       1.7642433
       4396.0306       1.7781309
       4396.9325       1.7509543
       4397.8344       1.6225613
       4398.7363       1.7979934
       4399.6381       1.7117080
       4400.5400       1.6179411
       4401.4419       1.7654916
       4402.3438       1.6720924
       4403.2457       1.8490683
       4404.1475       1.5562695
       4405.0494       1.7046142
       4405.9513       1.6171184
       4406.8532       1.6069614
       4407.7551       1.8816235
       4408.6569       1.5397694
       4409.5588       1.6481282
       4410.4607       1.7664915
       4411.3626       1.8139928
       4412.2645       1.8220927
       4413.1664       1.8283793
       4414.0682       1.7240369
       4414.9701       1.5912603
       4415.8720       1.5803248
       4416.7739       1.7264136
       4417.6758       1.7898471
       4418.5776       1.7621838
       4419.4795       1.7197112
       4420.3814       1.7002929
       4421.2833       1.6112665
       4422.1852       1.5841503
       4423.0870       1.7686508
       4423.9889       1.7999184
       4424.8908       1.7312525
       4425.7927       1.6257366
       4426.6946       1.6879404
       4427.5964       1.6259984
       4428.4983       1.7195853
       4429.4002       1.6741770
       4430.3021       1.7649998
       4431.2040       1.7424522
       4432.1058       1.7121936
       4433.0077       1.7057527
       4433.9096       1.7020965
       4434.8115       1.6212326
       4435.7134       2.0659292
       4436.6153       1.8210038
       4437.5171       1.8635411
       4438.4190       1.6290694
       4439.3209       1.7307673
       4440.2228       1.5570461
       4441.1247       1.7301123
       4442.0265       1.6609286
       4442.9284       1.6462294
       4443.8303       1.5799143
       4444.7322       1.6732317
       4445.6341       1.7468569
       4446.5359       1.6901014
       4447.4378       1.5279292
       4448.3397       1.5972446
       4449.2416       1.6250394
       4450.1435       1.6149818
       4451.0453       1.7853675
       4451.9472       1.6631494
       4452.8491       1.5706922
       4453.7510       1.7781133
       4454.6529       1.6280942
       4455.5547       1.6539541
       4456.4566       1.8511175
       4457.3585       1.8229780
       4458.2604       1.6598300
       4459.1623       1.8787054
       4460.0642       1.8753358
       4460.9660       1.7077856
       4461.8679       1.8808383
       4462.7698       1.7961771
       4463.6717       1.7587428
       4464.5736       1.7425019
       4465.4754       1.6245347
       4466.3773       1.9146203
       4467.2792       1.5956632
       4468.1811       1.7455039
       4469.0830       1.8202508
       4469.9848       1.6621079
       4470.8867       1.7487624
       4471.7886       1.7540075
       4472.6905       1.7638363
       4473.5924       1.8409521
       4474.4942       1.7612875
       4475.3961       1.7162437
       4476.2980       1.7328194
       4477.1999       1.6268847
       4478.1018       1.5692235
       4479.0036       1.7794717
       4479.9055       1.4884993
       4480.8074       1.7833714
       4481.7093       1.8986429
       4482.6112       1.8083099
       4483.5131       1.7572709
       4484.4149       1.7105827
       4485.3168       1.6416932
       4486.2187       1.9241734
       4487.1206       1.9732537
       4488.0225       1.7543483
       4488.9243       1.9177733
       4489.8262       1.8344743
       4490.7281       1.8905487
       4491.6300       1.9229854
       4492.5319       1.7847089
       4493.4337       1.7559738
       4494.3356       1.6616969
       4495.2375       1.7015342
       4496.1394       1.8934074
       4497.0413       1.7240457
       4497.9431       1.7235706
       4498.8450       1.7308777
       4499.7469       1.7126543
       4500.6488       1.9680451
       4501.5507       1.7198991
       4502.4525       1.7829461
       4503.3544       1.8061657
       4504.2563       1.8466825
       4505.1582       1.7527260
       4506.0601       1.8466028
       4506.9620       1.7385442
       4507.8638       1.7066087
       4508.7657       1.9227992
       4509.6676       1.7203330
       4510.5695       1.7947101
       4511.4714       1.8993921
       4512.3732       1.6096762
       4513.2751       1.5737826
       4514.1770       1.7714189
       4515.0789       1.7347662
       4515.9808       1.8049084
       4516.8826       1.6260848
       4517.7845       1.7337119
       4518.6864       1.7333673
       4519.5883       1.7443476
       4520.4902       1.5492108
       4521.3920       1.8440316
       4522.2939       1.9596911
       4523.1958       1.8229973
       4524.0977       1.6845982
       4524.9996       1.6064492
       4525.9014       1.6131605
       4526.8033       1.6535576
       4527.7052       1.7889248
       4528.6071       1.7429110
       4529.5090       1.7472449
       4530.4109       1.8185289
       4531.3127       1.5291802
       4532.2146       1.6469692
       4533.1165       1.7360213
       4534.0184       1.8052240
       4534.9203       1.7355467
       4535.8221       1.8525058
       4536.7240       1.6052581
       4537.6259       1.6169896
       4538.5278       1.4524991
       4539.4297       1.6457354
       4540.3315       1.7456979
       4541.2334       1.7741703
       4542.1353       1.5527721
       4543.0372       1.7175128
       4543.9391       1.6062142
       4544.8409       1.7193430
       4545.7428       1.5956599
       4546.6447       1.6706484
       4547.5466       1.6385476
       4548.4485       1.6771609
       4549.3503       1.7173483
       4550.2522       1.7764838
       4551.1541       1.8274591
       4552.0560       1.8748340
       4552.9579       1.7991419
       4553.8598       1.7305287
       4554.7616       1.8744376
       4555.6635       1.7656380
       4556.5654       1.8563225
       4557.4673       1.7200539
       4558.3692       1.7805317
       4559.2710       1.7981125
       4560.1729       1.8451564
       4561.0748       1.8247772
       4561.9767       1.7062231
       4562.8786       1.7227157
       4563.7804       1.6704216
       4564.6823       1.6781912
       4565.5842       1.7405778
       4566.4861       1.4786537
       4567.3880       1.6212740
       4568.2898       1.6972101
       4569.1917       1.7772369
       4570.0936       1.7721123
       4570.9955       1.6733034
       4571.8974       1.6432253
       4572.7992       1.7325864
       4573.7011       1.6505488
       4574.6030       1.5541149
       4575.5049       1.6014642
       4576.4068       1.6600364
       4577.3087       1.8829407
       4578.2105       1.6221954
       4579.1124       1.7489891
       4580.0143       1.6443423
       4580.9162       1.8419945
       4581.8181       1.7879137
       4582.7199       1.9014906
       4583.6218       1.8286108
       4584.5237       1.6773558
       4585.4256       1.8824227
       4586.3275       1.8081608
       4587.2293       1.7544446
       4588.1312       1.8928476
       4589.0331       1.8212985
       4589.9350       2.0152123
       4590.8369       1.8545626
       4591.7387       1.6130601
       4592.6406       1.7615104
       4593.5425       1.8314147
       4594.4444       2.0845495
       4595.3463       1.9183128
       4596.2481       1.9989629
       4597.1500       1.8667163
       4598.0519       1.8035211
       4598.9538       1.9261426
       4599.8557       1.9672487
       4600.7575       1.7305741
       4601.6594       1.8191187
       4602.5613       1.7360237
       4603.4632       1.7721891
       4604.3651       1.8486177
       4605.2670       1.7889170
       4606.1688       1.8410100
       4607.0707       1.7258850
       4607.9726       1.8519305
       4608.8745       1.8053618
       4609.7764       1.6742554
       4610.6782       1.8608593
       4611.5801       1.7628405
       4612.4820       1.6820864
       4613.3839       1.9869587
       4614.2858       1.8406400
       4615.1876       1.8036385
       4616.0895       1.8349021
       4616.9914       1.9283468
       4617.8933       1.8443916
       4618.7952       1.8900807
       4619.6970       1.6705100
       4620.5989       1.6104113
       4621.5008       1.8133614
       4622.4027       1.9074870
       4623.3046       1.6991184
       4624.2064       1.7116182
       4625.1083       1.7408223
       4626.0102       1.9919206
       4626.9121       1.6629649
       4627.8140       1.7942766
       4628.7159       1.5873521
       4629.6177       1.7408946
       4630.5196       1.7266772
       4631.4215       1.7049373
       4632.3234       1.6266129
       4633.2253       1.8011142
       4634.1271       1.8102314
       4635.0290       1.9704171
       4635.9309       1.9489955
       4636.8328       1.6813080
       4637.7347       1.5298282
       4638.6365       1.8429162
       4639.5384       1.7367923
       4640.4403       1.7492834
       4641.3422       1.7226451
       4642.2441       1.7435952
       4643.1459       1.6899271
       4644.0478       1.7195979
       4644.9497       1.8003643
       4645.8516       1.7751289
       4646.7535       1.5979857
       4647.6553       1.7532896
       4648.5572       1.6062842
       4649.4591       1.7104864
       4650.3610       1.5798955
       4651.2629       1.7646603
       4652.1648       1.5110164
       4653.0666       1.8422901
       4653.9685       1.7817254
       4654.8704       1.8441534
       4655.7723       1.7635772
       4656.6742       1.8884307
       4657.5760       1.7895038
       4658.4779       1.7756197
       4659.3798       1.6311510
       4660.2817       1.6997976
       4840.5639       7.4894356
       4841.5749       7.4289395
       4842.5859       7.2856664
       4843.5968       6.7856261
       4844.6078       7.1378134
       4845.6188       7.4297167
       4846.6297       7.3494134
       4847.6407       7.3243314
       4848.6517       7.6528401
       4849.6626       7.4534448
       4850.6736       7.4346496
       4851.6846       7.2883464
       4852.6955       7.2072235
       4853.7065       7.1450271
       4854.7175       7.1256497
       4855.7284       7.1205079
       4856.7394       6.9726837
       4857.7504       7.0469719
       4858.7614       6.7725736
       4859.7723       6.7283557
       4860.7833       6.9844435
       4861.7943       7.0024998
       4862.8052       7.1315308
       4863.8162       7.5130059
       4864.8272       7.6289189
       4865.8381       7.5989280
       4866.8491       7.7323630
       4867.8601       7.5364944
       4868.8710       7.2909552
       4869.8820       7.1251284
       4870.8930       7.0698516
       4871.9039       6.8900246
       4872.9149       6.7799965
       4873.9259       6.7163928
       4874.9368       6.7132773
       4875.9478       7.0822137
       4876.9588       6.7388038
       4877.9697       6.6142246
       4878.9807       6.7992785
       4879.9917       6.4492664
       4881.0026       6.4944336
       4882.0136       6.5878664
       4883.0246       6.3911186
       4884.0355       6.5177608
       4885.0465       6.6325239
       4886.0575       7.0671079
       4887.0684       6.6875690
       4888.0794       6.4985027
       4889.0904       6.2797545
       4890.1014       6.3262272
       4891.1123       6.3958691
       4892.1233       6.4057919
       4893.1343       6.3773717
       4894.1452       6.1896027
       4895.1562       6.2472216
       4896.1672       5.9092782
       4897.1781       6.1667557
       4898.1891       6.4763729
       4899.2001       6.5347640
       4900.2110       6.4611865
       4901.2220       6.5520194
       4902.2330       6.4306156
       4903.2439       6.2381468
       4904.2549       6.2356010
       4905.2659       6.2275267
       4906.2768       6.0419495
       4907.2878       6.0018762
       4908.2988       6.2131485
       4909.3097       6.1658591
       4910.3207       6.1148172
       4911.3317       6.1101574
       4912.3426       6.4602275
       4913.3536       6.5293616
       4914.3646       6.7371104
       4915.3755       6.9524409
       4916.3865       6.6674739
       4917.3975       7.0360558
       4918.4084       6.7780002
       4919.4194       7.1291806
       4920.4304       7.3265642
       4921.4413       7.3284085
       4922.4523       7.3822441
       4923.4633       7.5535588
       4924.4743       7.3207392
       4925.4852       7.7728334
       4926.4962       7.8767722
       4927.5072       7.7016946
       4928.5181       7.6231313
       4929.5291       7.7813761
       4930.5401       7.8287457
       4931.5510       8.1166934
       4932.5620       7.6112838
       4933.5730       7.0863875
       4934.5839       7.0863566
       4935.5949       7.1155329
       4936.6059       6.8501782
       4937.6168       6.9943508
       4938.6278       6.6089155
       4939.6388       6.4186006
       4940.6497       6.2498110
       4941.6607       6.5549262
       4942.6717       6.3478626
       4943.6826       6.4050653
       4944.6936       6.6557402
       4945.7046       6.3651729
       4946.7155       6.3583403
       4947.7265       6.5820055
       4948.7375       6.4507056
       4949.7484       6.3168726
       4950.7594       6.3201459
       4951.7704       6.4512033
       4952.7813       6.5962553
       4953.7923       6.1691954
       4954.8033       6.3141095
       4955.8142       6.2606851
       4956.8252       6.2487112
       4957.8362       6.2413269
       4958.8472       6.3327510
       4959.8581       6.6546489
       4960.8691       6.8334184
       4961.8801       7.1658946
       4962.8910       6.8487343
       4963.9020       7.2212830
       4964.9130       7.0646409
       4965.9239       7.4145087
       4966.9349       7.7144137
       4967.9459       7.7992372
       4968.9568       7.6944395
       4969.9678       8.3672168
       4970.9788       8.2116528
       4971.9897       8.5247289
       4973.0007       8.5925595
       4974.0117       9.1309975
       4975.0226       9.2082753
       4976.0336       9.2318296
       4977.0446       9.6837888
       4978.0555       10.181337
       4979.0665       10.695999
       4980.0775       11.137260
       4981.0884       10.518083
       4982.0994       9.6968113
       4983.1104       9.4013308
       4984.1213       8.9636308
       4985.1323       8.5219962
       4986.1433       8.0643521
       4987.1542       7.5757078
       4988.1652       6.9829577
       4989.1762       6.6220354
       4990.1871       6.1592964
       4991.1981       6.3302269
       4992.2091       6.0099529
       4993.2201       5.8792620
       4994.2310       5.9586197
       4995.2420       5.7079013
       4996.2530       5.6075769
       4997.2639       5.6219613
       4998.2749       5.7355860
       4999.2859       5.4927659
       5000.2968       5.5763094
       5001.3078       5.6617754
       5002.3188       5.5959951
       5003.3297       5.8072204
       5004.3407       5.5447752
       5005.3517       5.4229037
       5006.3626       5.8768799
       5007.3736       5.7737487
       5008.3846       5.9141535
       5009.3955       5.7958301
       5010.4065       5.6313802
       5011.4175       5.7797953
       5012.4284       5.3086777
       5013.4394       5.2873769
       5014.4504       5.5170508
       5015.4613       5.2314721
       5016.4723       5.4814789
       5017.4833       5.3762628
       5018.4942       5.2155658
       5019.5052       5.4668029
       5020.5162       5.5437415
       5021.5271       5.5645286
       5022.5381       5.7360475
       5023.5491       5.4451530
       5024.5601       5.4843379
       5025.5710       5.1921338
       5026.5820       5.3853824
       5027.5930       5.3809960
       5028.6039       5.4832847
       5029.6149       5.5666821
       5030.6259       5.5027712
       5031.6368       5.7345727
       5032.6478       5.5997418
       5033.6588       5.4624871
       5034.6697       5.6924370
       5035.6807       5.6934914
       5036.6917       5.4773752
       5037.7026       5.5217368
       5038.7136       5.4431635
       5039.7246       5.6700605
       5040.7355       5.5097854
       5041.7465       5.3269811
       5042.7575       5.4687897
       5043.7684       5.2673238
       5044.7794       5.3650477
       5045.7904       5.3766928
       5046.8013       5.3261416
       5047.8123       5.5235599
       5048.8233       5.4888763
       5049.8342       5.4963017
       5050.8452       5.2316153
       5051.8562       5.4983595
       5052.8671       5.4944364
       5053.8781       5.4373645
       5054.8891       5.4578352
       5055.9000       5.1137647
       5056.9110       5.3536060
       5057.9220       5.5358688
       5058.9330       5.2111806
       5059.9439       5.2619995
       5060.9549       5.2301502
       5061.9659       5.3795221
       5062.9768       5.2656484
       5063.9878       5.4784581
       5064.9988       5.5217098
       5066.0097       5.8699761
       5067.0207       5.3437760
       5068.0317       5.6459855
       5069.0426       5.5343991
       5070.0536       5.6589635
       5071.0646       5.6942676
       5072.0755       5.4750131
       5073.0865       5.6360237
       5074.0975       5.3356568
       5075.1084       5.4368506
       5076.1194       5.4893462
       5077.1304       5.0921304
       5078.1413       5.1615210
       5079.1523       5.0553893
       5080.1633       5.5975971
       5081.1742       5.4326432
       5082.1852       5.4451646
       5083.1962       5.5986556
       5084.2071       5.4676962
       5085.2181       5.2422494
       5086.2291       5.3588417
       5087.2400       5.4043749
       5088.2510       5.4324472
       5089.2620       5.5651935
       5090.2729       5.6063551
       5091.2839       5.5673650
       5092.2949       5.5382898
       5093.3059       5.6977365
       5094.3168       5.6886126
       5095.3278       5.7605939
       5096.3388       5.7036279
       5097.3497       5.8073976
       5098.3607       5.7319016
       5099.3717       5.5338292
       5100.3826       5.7267408
       5101.3936       5.5251250
       5102.4046       5.4390380
       5103.4155       5.4896643
       5104.4265       5.3509310
       5105.4375       5.3580611
       5106.4484       5.3533618
       5107.4594       5.4466690
       5108.4704       5.6230908
       5109.4813       5.5925982
       5110.4923       5.8540790
       5111.5033       5.7142426
       5112.5142       5.7230900
       5113.5252       5.4815407
       5114.5362       5.4859297
       5115.5471       5.7316948
       5116.5581       5.5237460
       5117.5691       5.5440259
       5118.5800       5.6216042
       5119.5910       5.7332038
       5120.6020       5.6126982
       5121.6129       5.8935322
       5122.6239       5.7910423
       5123.6349       5.8058901
       5124.6459       5.8096483
       5125.6568       5.7150207
       5126.6678       5.6973401
       5127.6788       5.7214109
       5128.6897       5.6570914
       5129.7007       5.5590544
       5130.7117       5.5211019
       5131.7226       5.6859717
       5132.7336       5.5797191
       5133.7446       5.9033352
       5134.7555       5.7974270
       5135.7665       5.9662728
       5136.7775       6.0429467
       5137.7884       5.6502435
       5138.7994       5.8133874
       5139.8104       5.7591310
       5140.8213       5.8798746
       5141.8323       5.5581190
       5142.8433       5.6551558
       5143.8542       5.4309235
       5144.8652       5.2796493
       5145.8762       5.1389141
       5146.8871       4.9912798
       5147.8981       5.2486607
       5148.9091       5.1227468
       5149.9200       4.9379789
       5150.9310       4.8599840
       5151.9420       5.1584712
       5152.9529       4.9098061
       5153.9639       5.1919943
       5154.9749       5.4474411
       5155.9858       5.4790830
       5156.9968       5.6491702
       5158.0078       5.6649438
       5159.0188       5.7562841
       5160.0297       6.0212022
       5161.0407       5.3668821
       5162.0517       5.4656851
       5163.0626       5.3611439
       5164.0736       5.3743778
       5165.0846       5.6162906
       5166.0955       5.6227693
       5167.1065       5.5997069
       5168.1175       5.8905789
       5169.1284       5.8137171
       5170.1394       5.9749412
       5171.1504       6.0107448
       5172.1613       5.8514149
       5173.1723       5.9586296
       5174.1833       5.7797966
       5175.1942       6.0979488
       5176.2052       6.2881404
       5177.2162       6.4170789
       5178.2271       6.3174450
       5179.2381       6.6240072
       5180.2491       6.6530779
       5181.2600       6.7164564
       5182.2710       6.5264421
       5183.2820       6.3186424
       5184.2929       6.1483362
       5185.3039       6.2543710
       5186.3149       6.2411521
       5187.3258       5.7664652
       5188.3368       5.9246310
       5189.3478       5.8049176
       5190.3587       6.0503458
       5191.3697       6.0009079
       5192.3807       6.1147584
       5193.3917       5.8980882
       5194.4026       6.3923418
       5195.4136       6.0757022
       5196.4246       5.9731392
       5197.4355       6.1527046
       5198.4465       6.0584424
       5199.4575       6.1601514
       5200.4684       6.0888773
       5201.4794       6.1450083
       5202.4904       6.1363793
       5203.5013       6.3299390
       5204.5123       6.0627238
       5205.5233       5.8310674
       5206.5342       5.8010355
       5207.5452       5.9432023
       5208.5562       5.7804883
       5209.5671       6.0004468
       5210.5781       5.7193214
       5211.5891       5.9037622
       5212.6000       6.0488093
       5213.6110       6.2888239
       5214.6220       6.3041231
       5215.6329       6.3386521
       5216.6439       6.5274528
       5217.6549       6.0956098
       5218.6658       6.4111548
       5219.6768       6.3203326
       5220.6878       6.2852452
       5221.6987       6.4695065
       5222.7097       6.2681818
       5223.7207       6.4522190
       5224.7316       6.3686129
       5225.7426       6.4096461
       5226.7536       6.1984343
       5227.7646       6.2732886
       5228.7755       6.4190367
       5229.7865       6.1034872
       5230.7975       6.1224976
       5231.8084       6.2512319
       5232.8194       5.9090521
       5233.8304       6.3241596
       5234.8413       5.9498224
       5235.8523       6.1678406
       5236.8633       6.2520761
       5237.8742       6.6346538
       5238.8852       6.4133156
       5239.8962       6.1559145
       5240.9071       6.4027634
       5241.9181       6.4826350
       5242.9291       6.2602435
       5243.9400       6.3409524
       5244.9510       6.2077133
       5245.9620       5.9406241
       5246.9729       5.6734570
       5247.9839       5.8953753
       5248.9949       5.8521130
       5250.0058       5.8286492
       5251.0168       5.8387812
       5252.0278       5.6460015
       5253.0387       5.6241507
       5254.0497       5.7310706
       5255.0607       5.5254966
       5256.0716       5.8492680
       5257.0826       5.9107797
       5258.0936       6.2943406
       5259.1046       6.3806251
       5260.1155       6.3709803
       5261.1265       6.2806416
       5262.1375       6.4986006
       5263.1484       6.3737837
       5264.1594       6.3770123
       5265.1704       6.4542899
       5266.1813       6.4396134
       5267.1923       6.4074707
       5268.2033       6.4912751
       5269.2142       6.3728271
       5270.2252       6.3785435
       5271.2362       6.4992466
       5272.2471       6.3765373
       5273.2581       6.7578407
       5274.2691       6.4137959
       5275.2800       6.3610268
       5276.2910       6.2456337
       5277.3020       6.2920091
       5278.3129       6.1758382
       5279.3239       6.2570833
       5280.3349       6.0736443
       5281.3458       6.0072737
       5282.3568       6.0888071
       5283.3678       6.2897364
       5284.3787       6.2632254
       5285.3897       6.4279799
       5286.4007       6.1423840
       5287.4116       6.2995479
       5288.4226       6.1460537
       5289.4336       5.9110389
       5290.4445       6.0429375
       5291.4555       6.1189272
       5292.4665       6.5465841
       5293.4775       6.5971987
       5294.4884       6.8018387
       5295.4994       7.2274890
       5296.5104       6.9037717
       5297.5213       6.8310614
       5298.5323       6.7350157
       5299.5433       6.4312478
       5300.5542       6.4155755
       5301.5652       5.9371481
       5302.5762       6.5912053
       5303.5871       6.6368202
       5304.5981       6.5855103
       5305.6091       6.5699277
       5306.6200       6.4109940
       5307.6310       6.4241198
       5308.6420       6.2785184
       5309.6529       6.3770525
       5310.6639       6.0778814
       5311.6749       6.0992311
       5312.6858       5.9918255
       5313.6968       5.8888077
       5314.7078       6.2266654
       5315.7187       6.1817917
       5316.7297       6.1299806
       5317.7407       6.4230654
       5318.7516       6.4988447
       5319.7626       6.5421016
       5320.7736       6.7048888
       5321.7845       6.6496471
       5322.7955       6.6031178
       5323.8065       6.4494132
       5324.8174       6.3824497
       5325.8284       6.3031172
       5326.8394       6.5462617
       5327.8504       6.2659203
       5328.8613       6.5049875
       5329.8723       6.3839811
       5330.8833       6.3365351
       5331.8942       6.4198507
       5332.9052       6.6077450
       5333.9162       6.3895728
       5334.9271       6.4091951
       5335.9381       6.7432784
       5336.9491       6.9417872
       5337.9600       6.8922638
       5338.9710       6.7213188
       5339.9820       6.9353748
       5340.9929       6.8881142
       5342.0039       7.0568721
       5343.0149       6.7867832
       5344.0258       6.8151782
       5345.0368       6.7976580
       5346.0478       6.7363280
       5347.0587       6.6867825
       5348.0697       6.7588377
       5349.0807       6.7761774
       5350.0916       6.8711936
       5351.1026       6.7037222
       5352.1136       6.7161084
       5353.1245       6.3824154
       5354.1355       6.6195191
       5355.1465       6.3294784
       5356.1574       6.3418113
       5357.1684       6.3991848
       5358.1794       6.3536315
       5359.1904       6.4544531
       5360.2013       6.4251315
       5361.2123       6.4501285
       5362.2233       6.5884107
       5363.2342       6.7134790
       5364.2452       6.5292349
       5365.2562       6.6111919
       5366.2671       6.4646323
       5367.2781       6.3400387
       5368.2891       6.4355133
       5369.3000       6.5549145
       5370.3110       6.2383616
       5371.3220       6.5395786
       5372.3329       6.4438417
       5373.3439       6.3679493
       5374.3549       6.2589076
       5375.3658       6.2332893
       5376.3768       6.2982657
       5377.3878       6.2072549
       5378.3987       6.2202599
       5379.4097       6.2356835
       5380.4207       6.0266880
       5381.4316       6.0482040
       5382.4426       6.1464899
       5383.4536       6.3965248
       5384.4645       6.1964802
       5385.4755       6.2494354
       5386.4865       5.9514081
       5387.4974       5.9921776
       5388.5084       6.2363344
       5389.5194       5.8315356
       5390.5303       5.8191389
       5391.5413       5.9309517
       5392.5523       6.0000612
       5393.5633       5.8964195
       5394.5742       6.0788241
       5395.5852       5.8948003
       5396.5962       5.9246730
       5397.6071       5.9994419
       5398.6181       6.1732869
       5399.6291       6.6293756
       5400.6400       6.3864539
       5401.6510       6.1784041
       5402.6620       6.4488186
       5403.6729       6.4327102
       5404.6839       6.4357028
       5405.6949       6.3273872
       5406.7058       6.3647103
       5407.7168       6.3543582
       5408.7278       6.2624137
       5409.7387       6.2671631
       5410.7497       6.4230149
       5411.7607       6.2627848
       5412.7716       6.3136967
       5413.7826       6.3929912
       5414.7936       6.1603560
       5415.8045       6.3815763
       5416.8155       6.0151325
       5417.8265       6.2305930
       5418.8374       6.0324749
       5419.8484       6.2212296
       5420.8594       6.2421638
       5421.8703       5.8792527
       5422.8813       6.0214077
       5423.8923       6.4097008
       5424.9032       6.3354547
       5425.9142       6.2725067
       5426.9252       6.5384815
       5427.9362       6.4343630
       5428.9471       6.1367008
       5429.9581       6.3602278
       5430.9691       6.3852795
       5431.9800       6.1685693
       5432.9910       6.0269092
       5434.0020       6.1794415
       5435.0129       6.2852606
       5436.0239       6.3257196
       5437.0349       6.1232588
       5438.0458       6.2873635
       5439.0568       6.2625611
       5440.0678       6.1742925
       5441.0787       6.1497181
       5442.0897       6.2088182
       5443.1007       5.9899322
       5444.1116       6.1148143
       5445.1226       6.2117525
       5446.1336       6.3558401
       5447.1445       6.4018610
       5448.1555       6.3014937
       5449.1665       6.1711816
       5450.1774       6.2046706
       5451.1884       6.2022762
       5452.1994       6.2415506
       5453.2103       6.1779254
       5454.2213       6.2140031
       5455.2323       6.2009129
       5456.2432       6.4051403
       5457.2542       6.2569368
       5458.2652       6.3048836
       5459.2762       6.2444776
       5460.2871       6.1936469
       5461.2981       5.8176504
       5462.3091       5.9021517
       5463.3200       5.7605361
       5464.3310       6.1154384
       5465.3420       5.9658885
       5466.3529       6.2106666
       5467.3639       6.3965690
       5468.3749       6.2045115
       5469.3858       6.3047093
       5470.3968       6.5746620
       5471.4078       6.2579896
       5472.4187       6.3298044
       5473.4297       6.1541988
       5474.4407       6.3379492
       5475.4516       6.1528211
       5476.4626       6.1908023
       5477.4736       6.0850695
       5478.4845       6.1646179
       5479.4955       6.2942304
       5480.5065       6.3388892
       5481.5174       6.3072605
       5482.5284       6.0782341
       5483.5394       6.1804909
       5484.5503       6.4071213
       5485.5613       6.2502438
       5486.5723       6.2329438
       5487.5832       6.2572610
       5488.5942       6.2083618
       5489.6052       6.0389887
       5490.6161       6.2754404
       5491.6271       5.8995434
       5492.6381       6.0438979
       5493.6491       6.1804235
       5494.6600       6.1832960
       5495.6710       6.0864545
       5496.6820       6.3698975
       5497.6929       6.0274221
       5498.7039       6.0283588
       5499.7149       5.8190596
       5500.7258       6.2127348
       5501.7368       6.2237611
       5502.7478       6.1497198
       5503.7587       6.1213908
       5504.7697       6.3751834
       5505.7807       6.3552675
       5506.7916       6.6240863
       5507.8026       6.4174308
       5508.8136       6.4373900
       5509.8245       6.3743525
       5510.8355       6.6072037
       5511.8465       6.3868704
       5512.8574       6.3097976
       5513.8684       6.4247117
       5514.8794       6.0821503
       5515.8903       5.9533183
       5516.9013       5.8600058
       5517.9123       6.1752981
       5518.9232       6.3661699
       5519.9342       6.1978587
       5520.9452       6.1518319
       5521.9561       6.1672255
       5522.9671       6.0885919
       5523.9781       6.2602084
       5524.9890       6.2639878
       5526.0000       6.2090326
       5527.0110       6.2072542
       5528.0220       6.1621164
       5529.0329       6.1027708
       5530.0439       6.3365165
       5531.0549       6.1936619
       5532.0658       6.3947446
       5533.0768       6.1036413
       5534.0878       6.4549005
       5535.0987       6.4397873
       5536.1097       6.3773884
       5537.1207       6.3916630
       5538.1316       6.5475973
       5539.1426       6.5587457
       5540.1536       6.4856783
       5541.1645       6.4274011
       5542.1755       6.5950499
       5543.1865       6.2359162
       5544.1974       6.0714187
       5545.2084       6.2229829
       5546.2194       6.1964051
       5547.2303       6.2272015
       5548.2413       6.2426396
       5549.2523       6.3524440
       5550.2632       6.1355422
       5551.2742       6.0029051
       5552.2852       6.2390338
       5553.2961       6.1939759
       5554.3071       6.1757180
       5555.3181       6.2007571
       5556.3290       6.3188894
       5557.3400       6.1285660
       5558.3510       6.0663163
       5559.3619       5.9797475
       5560.3729       6.0908667
       5561.3839       5.9560136
       5562.3949       6.2853212
       5563.4058       6.1437359
       5564.4168       6.1040733
       5565.4278       6.3217850
       5566.4387       6.1660632
       5567.4497       6.2106721
       5568.4607       6.3998233
       5569.4716       6.2290029
       5570.4826       6.3103466
       5571.4936       6.2676651
       5572.5045       6.0860005
       5573.5155       6.1110493
       5574.5265       6.1420370
       5575.5374       5.9470524
       5576.5484       5.7663309
       5577.5594       5.8305905
       5578.5703       5.8996681
       5579.5813       6.2176831
       5580.5923       5.9628899
       5581.6032       5.9095277
       5582.6142       6.0328240
       5583.6252       6.0685966
       5584.6361       6.1193092
       5585.6471       6.0363210
       5586.6581       6.0109714
       5587.6690       6.2193543
       5588.6800       6.1571318
       5589.6910       6.0744750
       5590.7019       5.9569194
       5591.7129       6.0725374
       5592.7239       6.1045553
       5593.7349       6.3480275
       5594.7458       6.2153021
       5595.7568       6.1176380
       5596.7678       6.2249078
       5597.7787       6.3637743
       5598.7897       6.4351414
       5599.8007       6.1643478
       5600.8116       6.2996157
       5601.8226       6.1413876
       5602.8336       6.1991070
       5603.8445       6.2671158
       5604.8555       6.1539439
       5605.8665       6.0542869
       5606.8774       6.2697292
       5607.8884       6.0792673
       5608.8994       6.1182652
       5609.9103       5.9911765
       5610.9213       6.0839110
       5611.9323       6.0753915
       5612.9432       6.3068475
       5613.9542       6.1789119
       5614.9652       6.1325717
       5615.9761       6.3943988
       5616.9871       6.4775499
       5617.9981       6.6764290
       5619.0090       6.4660985
       5620.0200       6.5185948
       5621.0310       6.3763069
       5622.0419       6.4045257
       5623.0529       6.4521677
       5624.0639       6.2968874
       5625.0748       5.9495404
       5626.0858       6.4963939
       5627.0968       6.0594234
       5628.1078       6.2164737
       5629.1187       6.1010268
       5630.1297       6.1026667
       5631.1407       5.7017844
       5632.1516       5.8970144
       5633.1626       6.2471322
       5634.1736       6.3026682
       5635.1845       6.2685208
       5636.1955       6.1780734
       5637.2065       6.0783648
       5638.2174       6.2321702
       5639.2284       6.0678104
       5640.2394       6.2865678
       5641.2503       6.1305476
       5642.2613       6.2616576
       5643.2723       6.1445937
       5644.2832       6.2009274
       5645.2942       6.2460906
       5646.3052       6.1575785
       5647.3161       6.0865811
       5648.3271       5.8305946
       5649.3381       5.9891201
       5650.3490       5.9287090
       5651.3600       6.0395343
       5652.3710       6.0702836
       5653.3819       6.2051915
       5654.3929       6.2006795
       5655.4039       6.2158207
       5656.4148       6.2464704
       5657.4258       6.1972545
       5658.4368       6.1690511
       5659.4477       6.1492774
       5660.4587       6.1862051
       5661.4697       6.2395341
       5662.4807       6.2433172
       5663.4916       6.2422994
       5664.5026       6.2361956
       5665.5136       6.1456266
       5666.5245       6.3756850
       5667.5355       6.5874977
       5668.5465       6.3505047
       5669.5574       6.1842889
       5670.5684       6.1179860
       5671.5794       6.2176799
       5672.5903       6.2360701
       5673.6013       6.1418024
       5674.6123       5.9692469
       5675.6232       6.1478242
       5676.6342       6.0561461
       5677.6452       6.0096746
       5678.6561       6.0893730
       5679.6671       6.1827472
       5680.6781       6.1738212
       5681.6890       6.2835950
       5682.7000       6.3516118
       5683.7110       6.2290131
       5684.7219       6.3203652
       5685.7329       6.2410262
       5686.7439       6.4383001
       5687.7548       6.2284145
       5688.7658       6.2906382
       5689.7768       6.4036547
       5690.7877       6.2335747
       5691.7987       6.2156021
       5692.8097       6.1750264
       5693.8207       6.2280480
       5694.8316       5.9533304
       5695.8426       6.1273255
       5696.8536       5.9065733
       5697.8645       5.8873682
       5698.8755       5.8814603
       5699.8865       6.1226528
       5700.8974       6.0972089
       5701.9084       5.9271492
       5702.9194       5.8578595
       5703.9303       6.0261591
       5704.9413       6.1692919
       5705.9523       6.1590692
       5706.9632       6.1192461
       5707.9742       6.2037015
       5708.9852       6.2641387
       5709.9961       6.3599173
       5711.0071       6.4109432
       5712.0181       6.1300278
       5713.0290       6.4394193
       5714.0400       6.3877354
       5715.0510       6.2652337
       5716.0619       6.3994321
       5717.0729       6.4394859
       5718.0839       6.4896056
       5719.0948       6.3555260
       5720.1058       6.4912297
       5721.1168       6.3263559
       5722.1277       6.3165033
       5723.1387       6.2669707
       5724.1497       6.4218942
       5725.1606       6.3539847
       5726.1716       6.5183679
       5727.1826       6.8047472
       5728.1936       6.3497129
       5729.2045       6.4131151
       5730.2155       6.3824229
       5731.2265       6.4553133
       5732.2374       6.3499125
       5733.2484       6.4484715
       5734.2594       6.5371424
       5735.2703       6.1606842
       5736.2813       6.5256634
       5737.2923       6.5105832
       5738.3032       6.4583320
       5739.3142       6.3539849
       5740.3252       6.4918827
       5741.3361       6.2812054
       5742.3471       6.6024288
       5743.3581       6.3139297
       5744.3690       6.6573856
       5745.3800       6.4031490
       5746.3910       6.4514574
       5747.4019       6.3886859
       5748.4129       6.7290780
       5749.4239       6.8116169
       5750.4348       6.7214671
       5751.4458       6.5184652
       5752.4568       6.8676734
       5753.4677       6.7245206
       5754.4787       6.3111884
       5755.4897       6.4028644
       5756.5006       6.5301255
       5757.5116       6.7046887
       5758.5226       6.6267448
       5759.5335       6.6015278
       5760.5445       6.5110855
       5761.5555       6.7295009
       5762.5665       6.3923162
       5763.5774       6.5560906
       5764.5884       6.5881710
       5765.5994       6.4381378
       5766.6103       6.2372123
       5767.6213       6.4333026
       5768.6323       6.2273428
       5769.6432       6.1565064
       5770.6542       6.2441735
       5771.6652       6.2932356
       5772.6761       6.1742347
       5773.6871       6.1301007
       5774.6981       5.8951885
       5775.7090       6.1325511
       5776.7200       5.9118861
       5777.7310       5.9549604
       5778.7419       6.0390138
       5779.7529       5.6454692
       5780.7639       5.3620792
       5781.7748       5.3127834
       5782.7858       5.0453978
       5783.7968       4.9854962
       5784.8077       4.8988457
       5785.8187       5.0391395
       5786.8297       5.3880578
       5787.8406       5.0963881
       5788.8516       5.6496102
       5789.8626       5.7540777
       5790.8735       5.7040791
       5791.8845       6.0864376
       5792.8955       5.9943398
       5793.9064       6.1078586
       5794.9174       5.9686565
       5795.9284       5.9085217
       5796.9394       5.7623843
       5797.9503       5.9528808
       5798.9613       5.6566295
       5799.9723       5.8719724
       5800.9832       5.7320539
       5801.9942       5.7483495
       5803.0052       5.6610256
       5804.0161       5.9351922
       5805.0271       6.0228247
       5806.0381       5.9814112
       5807.0490       5.9689083
       5808.0600       5.8579047
       5809.0710       6.0496984
       5810.0819       6.3471840
       5811.0929       6.2724382
       5812.1039       6.3034221
       5813.1148       6.0893317
       5814.1258       6.0433153
       5815.1368       6.0647500
       5816.1477       6.1856381
       5817.1587       6.2980658
       5818.1697       5.9543753
       5819.1806       6.4289324
       5820.1916       6.6261388
       5821.2026       6.3751781
       5822.2135       6.4311201
       5823.2245       6.3863690
       5824.2355       6.2414712
       5825.2464       6.2003183
       5826.2574       6.3312620
       5827.2684       6.3485784
       5828.2794       6.4901087
       5829.2903       6.4881524
       5830.3013       6.5000969
       5831.3123       6.7948577
       5832.3232       6.4025975
       5833.3342       6.6663882
       5834.3452       6.5308734
       5835.3561       6.3814727
       5836.3671       6.5369254
       5837.3781       6.3259744
       5838.3890       6.3972376
       5839.4000       6.4057785
       5840.4110       6.5571788
       5841.4219       6.7439093
       5842.4329       6.5874936
       5843.4439       6.7807266
       5844.4548       6.4265734
       5845.4658       6.2191115
       5846.4768       6.2867628
       5847.4877       6.2833899
       5848.4987       6.3118823
       5849.5097       6.3789169
       5850.5206       6.6163544
       5851.5316       6.4004477
       5852.5426       6.3882492
       5853.5535       6.4184743
       5854.5645       6.3122260
       5855.5755       6.3478275
       5856.5864       6.4980991
       5857.5974       6.5324360
       5858.6084       6.3307313
       5859.6193       6.3434839
       5860.6303       6.3610727
       5861.6413       6.6279997
       5862.6523       6.6009343
       5863.6632       6.7343036
       5864.6742       6.5611564
       5865.6852       6.6307238
       5866.6961       6.7852410
       5867.7071       6.7342700
       5868.7181       6.7770205
       5869.7290       6.7836008
       5870.7400       6.8352230
       5871.7510       6.7758435
       5872.7619       6.3797170
       5873.7729       6.4876831
       5874.7839       6.0617162
       5875.7948       6.6078534
       5876.8058       6.4454062
       5877.8168       6.3781355
       5878.8277       6.3987345
       5879.8387       5.9589776
       5880.8497       5.9554710
       5881.8606       5.6727888
       5882.8716       5.8706277
       5883.8826       5.7099463
       5884.8935       5.5085975
       5885.9045       5.5933934
       5886.9155       5.5977699
       5887.9264       5.7732849
       5888.9374       5.9300805
       5889.9484       5.7725007
       5890.9593       6.0232490
       5891.9703       6.0273689
       5892.9813       6.0837776
       5893.9922       6.2600537
       5895.0032       6.3261505
       5896.0142       6.5132312
       5897.0252       6.4244166
       5898.0361       6.5048591
       5899.0471       6.3304587
       5900.0581       6.5411857
       5901.0690       6.5110473
       5902.0800       6.6614120
       5903.0910       6.5878863
       5904.1019       6.6585097
       5905.1129       6.5362568
       5906.1239       6.7040722
       5907.1348       6.5390093
       5908.1458       6.4885569
       5909.1568       6.3875414
       5910.1677       6.4200185
       5911.1787       6.4573453
       5912.1897       6.4526985
       5913.2006       6.3985883
       5914.2116       6.3075649
       5915.2226       6.5893260
       5916.2335       6.6456944
       5917.2445       6.4741684
       5918.2555       6.4820382
       5919.2664       6.5276673
       5920.2774       6.6253403
       5921.2884       6.6809763
       5922.2993       6.7356628
       5923.3103       6.6476788
       5924.3213       6.6386673
       5925.3322       6.6898434
       5926.3432       6.5268709
       5927.3542       6.6824601
       5928.3652       6.5402796
       5929.3761       6.5322842
       5930.3871       6.7475962
       5931.3981       6.5271347
       5932.4090       6.6017806
       5933.4200       6.6752585
       5934.4310       6.5492039
       5935.4419       6.5221451
       5936.4529       6.3966182
       5937.4639       6.6182272
       5938.4748       6.5644557
       5939.4858       6.5836486
       5940.4968       6.5307195
       5941.5077       6.5383185
       5942.5187       6.6951991
       5943.5297       6.8406131
       5944.5406       6.5922254
       5945.5516       6.4917385
       5946.5626       6.7578118
       5947.5735       6.6577227
       5948.5845       6.8843198
       5949.5955       6.5081022
       5950.6064       6.5076571
       5951.6174       6.4686876
       5952.6284       6.6867962
       5953.6393       6.5848467
       5954.6503       6.5639434
       5955.6613       6.6170510
       5956.6722       6.5991594
       5957.6832       6.5759646
       5958.6942       6.3905093
       5959.7051       6.3722023
       5960.7161       6.4027191
       5961.7271       6.5980458
       5962.7381       6.6269158
       5963.7490       6.7322576
       5964.7600       6.7666009
       5965.7710       6.6002376
       5966.7819       6.8655081
       5967.7929       6.7047077
       5968.8039       6.6648976
       5969.8148       6.6613640
       5970.8258       6.6146372
       5971.8368       6.6411568
       5972.8477       6.5790076
       5973.8587       6.5528948
       5974.8697       6.5776062
       5975.8806       6.8576521
       5976.8916       6.4377304
       5977.9026       6.4886655
       5978.9135       6.6645609
       5979.9245       6.7680584
       5980.9355       6.7158573
       5981.9464       6.3046285
       5982.9574       6.6105961
       5983.9684       6.5084912
       5984.9793       6.6373373
       5985.9903       6.6856545
       5987.0013       6.6848262
       5988.0122       6.4948221
       5989.0232       6.7130257
       5990.0342       6.5524981
       5991.0451       6.9505491
       5992.0561       6.9323136
       5993.0671       6.7726742
       5994.0780       6.7455021
       5995.0890       6.5308578
       5996.1000       6.5687854
       5997.1110       6.7368070
       5998.1219       6.6481882
       5999.1329       6.4858777
       6000.1439       6.5283744
       6001.1548       6.7515581
       6002.1658       6.6529553
       6003.1768       6.5945837
       6004.1877       6.5705871
       6005.1987       6.6783389
       6006.2097       6.6594896
       6007.2206       6.6055682
       6008.2316       6.7460236
       6009.2426       6.6575216
       6010.2535       6.5464665
       6011.2645       6.7480298
       6012.2755       6.5073330
       6013.2864       6.4697966
       6014.2974       6.3575515
       6015.3084       6.5404784
       6016.3193       6.2892303
       6017.3303       6.6146892
       6018.3413       6.4877359
       6019.3522       6.4774318
       6020.3632       6.3450274
       6021.3742       6.7319568
       6022.3851       6.3691090
       6023.3961       6.7029439
       6024.4071       6.7689039
       6025.4180       6.7478907
       6026.4290       6.9608422
       6027.4400       6.8030090
       6028.4509       7.0067323
       6029.4619       6.8175120
       6030.4729       6.5736644
       6031.4839       6.7986443
       6032.4948       6.8425272
       6033.5058       6.8650835
       6034.5168       6.5884831
       6035.5277       6.5475852
       6036.5387       6.7953826
       6037.5497       6.5920069
       6038.5606       6.6276570
       6039.5716       6.6486619
       6040.5826       6.7013675
       6041.5935       6.6620363
       6042.6045       6.7303739
       6043.6155       6.4937545
       6044.6264       6.7170711
       6045.6374       6.7244815
       6046.6484       6.8585464
       6047.6593       6.8159425
       6048.6703       6.6124681
       6049.6813       6.6592237
       6050.6922       6.9182444
       6051.7032       6.6067898
       6052.7142       6.6094376
       6053.7251       6.3228040
       6054.7361       6.6362237
       6055.7471       6.6082246
       6056.7580       6.5521329
       6057.7690       6.5558327
       6058.7800       6.6392718
       6059.7909       6.4924215
       6060.8019       6.5334564
       6061.8129       6.6144084
       6062.8239       6.6799211
       6063.8348       6.6867439
       6064.8458       6.9224657
       6065.8568       6.6974125
       6066.8677       6.6959213
       6067.8787       6.8397854
       6068.8897       6.8490144
       6069.9006       6.9991680
       6070.9116       6.7442110
       6071.9226       6.8858400
       6072.9335       6.8016937
       6073.9445       6.7629760
       6074.9555       6.9038596
       6075.9664       7.0057004
       6076.9774       7.2350504
       6077.9884       7.0610954
       6078.9993       6.8124958
       6080.0103       6.9818244
       6081.0213       6.8336239
       6082.0322       6.7231577
       6083.0432       6.4062531
       6084.0542       6.8893725
       6085.0651       6.7177681
       6086.0761       6.6720136
       6087.0871       6.5768364
       6088.0980       6.7234190
       6089.1090       6.7914466
       6090.1200       6.6229503
       6091.1309       6.6128339
       6092.1419       6.6617278
       6093.1529       6.5378947
       6094.1638       6.6671051
       6095.1748       6.6161781
       6096.1858       6.8859689
       6097.1968       6.5745985
       6098.2077       6.8117637
       6099.2187       6.7143843
       6100.2297       6.5617619
       6101.2406       6.7911893
       6102.2516       6.9505941
       6103.2626       7.1401782
       6104.2735       6.9271140
       6105.2845       7.1615201
       6106.2955       6.9428896
       6107.3064       6.6739271
       6108.3174       6.8812579
       6109.3284       6.7830310
       6110.3393       6.8033531
       6111.3503       6.8245849
       6112.3613       6.8344700
       6113.3722       6.6808314
       6114.3832       6.7239273
       6115.3942       6.7095314
       6116.4051       6.5994170
       6117.4161       6.4320649
       6118.4271       6.4982607
       6119.4380       6.4214703
       6120.4490       6.4697247
       6121.4600       6.7160135
       6122.4709       6.5264949
       6123.4819       6.7283991
       6124.4929       6.6014538
       6125.5038       6.7771603
       6126.5148       6.9353438
       6127.5258       6.7155345
       6128.5367       6.7013715
       6129.5477       6.9381601
       6130.5587       6.9110841
       6131.5697       7.0619282
       6132.5806       6.7581684
       6133.5916       6.8186246
       6134.6026       6.7872743
       6135.6135       6.8605743
       6136.6245       6.7655756
       6137.6355       6.8440840
       6138.6464       6.8431032
       6139.6574       6.7931377
       6140.6684       6.7783037
       6141.6793       6.6295726
       6142.6903       6.7165939
       6143.7013       6.7764794
       6144.7122       6.4517320
       6145.7232       6.7630251
       6146.7342       6.6383469
       6147.7451       6.7216641
       6148.7561       6.7506574
       6149.7671       6.7492511
       6150.7780       6.7104767
       6151.7890       6.4708107
       6152.8000       6.5526714
       6153.8109       6.2566325
       6154.8219       6.4605755
       6155.8329       6.3140289
       6156.8438       6.3675356
       6157.8548       5.9261494
       6158.8658       5.9898333
       6159.8767       6.4445769
       6160.8877       6.5037254
       6161.8987       6.3479476
       6162.9097       6.6646789
       6163.9206       6.5491137
       6164.9316       6.6108263
       6165.9426       6.6592765
       6166.9535       6.5645484
       6167.9645       6.6311512
       6168.9755       6.5623125
       6169.9864       6.5468055
       6170.9974       6.6164132
       6172.0084       6.6438015
       6173.0193       6.9820295
       6174.0303       6.7403110
       6175.0413       6.9125576
       6176.0522       6.7551446
       6177.0632       6.6329736
       6178.0742       6.6355692
       6179.0851       6.5641809
       6180.0961       6.7166624
       6181.1071       6.7736161
       6182.1180       6.7333463
       6183.1290       6.8070693
       6184.1400       7.2199780
       6185.1509       7.3285328
       6186.1619       7.0585985
       6187.1729       6.8745481
       6188.1838       6.7955685
       6189.1948       6.8243689
       6190.2058       6.7199973
       6191.2167       6.8182490
       6192.2277       6.5686042
       6193.2387       6.4618756
       6194.2496       6.7660406
       6195.2606       6.7215893
       6196.2716       6.9620901
       6197.2826       6.9034308
       6198.2935       7.0130757
       6199.3045       7.1122834
       6200.3155       7.0160829
       6201.3264       6.9252423
       6202.3374       6.6902379
       6203.3484       6.5547920
       6204.3593       6.8130454
       6205.3703       7.0853299
       6206.3813       7.1030910
       6207.3922       7.0513507
       6208.4032       6.9931630
       6209.4142       6.8234149
       6210.4251       6.8586993
       6211.4361       6.6703821
       6212.4471       6.6661590
       6213.4580       6.7540593
       6214.4690       6.5879694
       6215.4800       6.5065755
       6216.4909       6.5496763
       6217.5019       6.4662823
       6218.5129       6.7470333
       6219.5238       6.6255850
       6220.5348       6.6182571
       6221.5458       6.6524985
       6222.5567       6.6235751
       6223.5677       6.4067650
       6224.5787       6.5645707
       6225.5896       6.4726225
       6226.6006       6.7389090
       6227.6116       6.7212132
       6228.6225       6.9076503
       6229.6335       6.4956380
       6230.6445       6.5781205
       6231.6555       6.8480114
       6232.6664       6.7173941
       6233.6774       6.7607933
       6234.6884       6.7522669
       6235.6993       6.7663434
       6236.7103       6.9019380
       6237.7213       6.6419965
       6238.7322       6.8144478
       6239.7432       6.7784818
       6240.7542       6.4639547
       6241.7651       6.4804751
       6242.7761       6.6857745
       6243.7871       6.5229804
       6244.7980       6.3959894
       6245.8090       6.5265349
       6246.8200       6.4963271
       6247.8309       6.5324397
       6248.8419       6.5275383
       6249.8529       6.3463348
       6250.8638       6.5134916
       6251.8748       6.5298979
       6252.8858       6.5002956
       6253.8967       6.2447827
       6254.9077       6.5317295
       6255.9187       6.5415412
       6256.9296       6.7965466
       6257.9406       6.9948735
       6258.9516       6.8440962
       6259.9625       6.8119798
       6260.9735       6.9068148
       6261.9845       6.7154799
       6262.9955       6.8107643
       6264.0064       7.1345190
       6265.0174       6.9526410
       6266.0284       7.2171349
       6267.0393       7.0631621
       6268.0503       7.0005705
       6269.0613       7.0982162
       6270.0722       6.9755912
       6271.0832       7.1560950
       6272.0942       7.1044767
       6273.1051       7.1571940
       6274.1161       7.1611931
       6275.1271       7.1889767
       6276.1380       7.1169406
       6277.1490       6.8352119
       6278.1600       7.1572348
       6279.1709       7.1804657
       6280.1819       7.1800083
       6281.1929       7.2409750
       6282.2038       7.3964489
       6283.2148       7.4205978
       6284.2258       7.5151154
       6285.2367       7.5814139
       6286.2477       7.7665651
       6287.2587       7.9901354
       6288.2696       7.6857312
       6289.2806       7.7366420
       6290.2916       8.0491612
       6291.3025       8.0048223
       6292.3135       8.3076129
       6293.3245       8.4677191
       6294.3354       8.8497732
       6295.3464       9.1886332
       6296.3574       8.8596220
       6297.3684       8.8467292
       6298.3793       8.7104020
       6299.3903       8.4437425
       6300.4013       8.6356396
       6301.4122       8.1910649
       6302.4232       8.0924601
       6303.4342       8.0355278
       6304.4451       7.7956619
       6305.4561       7.6526896
       6306.4671       7.4169333
       6307.4780       7.5559995
       6308.4890       7.2561556
       6309.5000       7.2035288
       6310.5109       7.0244352
       6311.5219       7.1288319
       6312.5329       6.8903971
       6313.5438       6.7917051
       6314.5548       6.7360959
       6315.5658       6.7494558
       6316.5767       6.7178870
       6317.5877       6.8417502
       6318.5987       6.8929632
       6319.6096       7.1324270
       6320.6206       7.2628967
       6321.6316       7.3908563
       6322.6425       7.2962621
       6323.6535       7.6033483
       6324.6645       7.4749709
       6325.6754       7.5748999
       6326.6864       7.4863924
       6327.6974       7.5908707
       6328.7083       7.4466407
       6329.7193       7.0654503
       6330.7303       7.0497063
       6331.7413       7.1801937
       6332.7522       6.9867839
       6333.7632       6.9260594
       6334.7742       7.0481885
       6335.7851       6.8098327
       6336.7961       7.2162738
       6337.8071       7.4493137
       6338.8180       7.3886077
       6339.8290       7.8337046
       6340.8400       7.6695620
       6341.8509       7.3166960
       6342.8619       7.3799258
       6343.8729       7.0379242
       6344.8838       7.4300635
       6345.8948       7.0113917
       6346.9058       7.2529409
       6347.9167       7.2348531
       6348.9277       7.2526192
       6349.9387       7.2759929
       6350.9496       7.1963654
       6351.9606       7.2651206
       6352.9716       7.2347339
       6353.9825       7.1677696
       6354.9935       6.9529166
       6356.0045       7.2347777
       6357.0154       7.2204916
       6358.0264       7.2540166
       6359.0374       7.2994597
       6360.0483       7.1224656
       6361.0593       7.5791850
       6362.0703       7.3457891
       6363.0812       7.5867220
       6364.0922       7.5162937
       6365.1032       7.5413684
       6366.1142       7.3030580
       6367.1251       7.3122234
       6368.1361       7.3542296
       6369.1471       7.3557511
       6370.1580       7.0533459
       6371.1690       7.3924989
       6372.1800       7.1089268
       6373.1909       7.1961478
       6374.2019       7.3867733
       6375.2129       7.0981591
       6376.2238       7.2044390
       6377.2348       6.8211396
       6378.2458       7.0860656
       6379.2567       7.3345885
       6380.2677       7.2177024
       6381.2787       7.2588607
       6382.2896       7.1506030
       6383.3006       7.1549510
       6384.3116       7.1802832
       6385.3225       6.9415248
       6386.3335       7.0548158
       6387.3445       6.9006424
       6388.3554       6.8633390
       6389.3664       6.7076960
       6390.3774       6.9494839
       6391.3883       6.8238850
       6392.3993       6.9445777
       6393.4103       6.7875100
       6394.4212       6.5611855
       6395.4322       6.2552175
       6396.4432       5.8116173
       6397.4542       4.9728145
       6398.4651       4.6245112
       6399.4761       3.9145529
       6400.4871       3.6822840
       6401.4980       3.2913117
       6402.5090             NaN
       6403.5200             NaN
       6404.5309             NaN
       6405.5419             NaN
       6406.5529             NaN
       6407.5638             NaN
       6408.5748             NaN
       6409.5858             NaN
       6410.5967             NaN
       6411.6077             NaN
       6412.6187             NaN
       6413.6296             NaN
       6414.6406             NaN
       6415.6516             NaN
       6416.6625             NaN
       6417.6735             NaN
       6418.6845             NaN
       6419.6954             NaN
       6420.7064             NaN
       6421.7174             NaN
       6422.7283             NaN
       6423.7393             NaN
       6424.7503             NaN
       6425.7612             NaN
       6426.7722             NaN
       6427.7832             NaN
       6428.7941             NaN
       6429.8051             NaN
       6430.8161             NaN
       6431.8271             NaN
       6432.8380             NaN
       6433.8490             NaN
       6434.8600             NaN
       6435.8709             NaN
       6436.8819             NaN
       6437.8929             NaN
       6438.9038             NaN
       6439.9148             NaN
       6440.9258             NaN
       6441.9367             NaN
       6442.9477             NaN
       6443.9587             NaN
       6444.9696             NaN
       6445.9806             NaN
       6446.9916             NaN
       6448.0025             NaN
       6449.0135             NaN
       6450.0245             NaN
       6451.0354             NaN
       6452.0464             NaN
       6453.0574             NaN
       6454.0683             NaN
       6455.0793             NaN
       6456.0903             NaN
       6457.1012             NaN
       6458.1122             NaN
       6459.1232             NaN
       6460.1341             NaN
       6461.1451             NaN
       6462.1561             NaN
       6463.1670             NaN
       6464.1780             NaN
       6465.1890             NaN
       6466.2000             NaN
       6467.2109             NaN
       6468.2219             NaN
       6469.2329             NaN
       6470.2438             NaN
       6471.2548             NaN
       6472.2658             NaN
       6473.2767             NaN
       6474.2877             NaN
       6475.2987             NaN
       6476.3096             NaN
       6477.3206             NaN
       6478.3316             NaN
       6479.3425             NaN
       6480.3535             NaN
       6481.3645             NaN
       6482.3754             NaN
       6483.3864             NaN
       6484.3974             NaN
       6485.4083             NaN
       6486.4193             NaN
       6487.4303             NaN
       6488.4412             NaN
       6489.4522             NaN
       6490.4632             NaN
       6491.4741       6.8311244
       6492.4851       6.4780575
       6493.4961       6.6706500
       6494.5070       6.4059683
       6495.5180       6.4720379
       6496.5290       6.8239207
       6497.5400       7.2827904
       6498.5509       7.6181468
       6499.5619       7.3791601
       6500.5729       7.9031487
       6501.5838       7.5673629
       6502.5948       7.7047570
       6503.6058       8.0749955
       6504.6167       7.3164581
       6505.6277       7.5966314
       6506.6387       7.5579224
       6507.6496       7.6677293
       6508.6606       7.6855063
       6509.6716       7.7226150
       6510.6825       7.7573997
       6511.6935       7.7111962
       6512.7045       7.6264163
       6513.7154       7.6597711
       6514.7264       7.8442496
       6515.7374       7.7814301
       6516.7483       8.0423484
       6517.7593       8.0703135
       6518.7703       8.2563397
       6519.7812       8.1041399
       6520.7922       8.0364070
       6521.8032       8.1890605
       6522.8141       8.2540863
       6523.8251       8.4808757
       6524.8361       8.1418424
       6525.8470       8.3732798
       6526.8580       8.4619592
       6527.8690       9.1740708
       6528.8799       9.3505023
       6529.8909       9.7910559
       6530.9019       9.7241155
       6531.9129       9.9869881
       6532.9238       10.386935
       6533.9348       10.341909
       6534.9458       10.169891
       6535.9567       10.820916
       6536.9677       11.123734
       6537.9787       11.543909
       6538.9896       12.242943
       6540.0006       12.788105
       6541.0116       13.533457
       6542.0225       14.099192
       6543.0335       15.504709
       6544.0445       15.790576
       6545.0554       15.986684
       6546.0664       15.903970
       6547.0774       15.575231
       6548.0883       15.080774
       6549.0993       14.121602
       6550.1103       13.648696
       6551.1212       13.793756
       6552.1322       13.596569
       6553.1432       14.040333
       6554.1541       15.146240
       6555.1651       16.537503
       6556.1761       18.357017
       6557.1870       19.737176
       6558.1980       21.159350
       6559.2090       20.632929
       6560.2199       19.949088
       6561.2309       19.434655
       6562.2419       18.411218
       6563.2528       17.052256
       6564.2638       15.682876
       6565.2748       14.917628
       6566.2858       14.446526
       6567.2967       14.360386
       6568.3077       14.502556
       6569.3187       14.179837
       6570.3296       14.669587
       6571.3406       14.709111
       6572.3516       15.194073
       6573.3625       16.327673
       6574.3735       17.651162
       6575.3845       18.999149
       6576.3954       21.240001
       6577.4064       24.058902
       6578.4174       26.570113
       6579.4283       27.811740
       6580.4393       27.867786
       6581.4503       27.299581
       6582.4612       25.460797
       6583.4722       22.659048
       6584.4832       18.996642
       6585.4941       16.719103
       6586.5051       14.854299
       6587.5161       13.296396
       6588.5270       12.444437
       6589.5380       11.984250
       6590.5490       11.110973
       6591.5599       11.071477
       6592.5709       10.245842
       6593.5819       9.6157217
       6594.5928       9.2202106
       6595.6038       8.6832358
       6596.6148       8.2031768
       6597.6257       8.2085293
       6598.6367       8.0667913
       6599.6477       7.7758232
       6600.6587       7.6160997
       6601.6696       7.4536012
       6602.6806       7.5916098
       6603.6916       7.5854819
       6604.7025       7.5641481
       6605.7135       7.6179050
       6606.7245       7.5445478
       6607.7354       7.3951117
       6608.7464       7.5764391
       6609.7574       7.3300884
       6610.7683       7.3017003
       6611.7793       7.3687306
       6612.7903       7.4265266
       6613.8012       7.2912296
       6614.8122       7.6228991
       6615.8232       7.7210015
       6616.8341       7.6010015
       6617.8451       7.6496674
       6618.8561       7.8571636
       6619.8670       7.3922159
       6620.8780       7.5446937
       6621.8890       7.6158298
       6622.8999       7.4613058
       6623.9109       7.6572659
       6624.9219       7.2519967
       6625.9328       7.0761257
       6626.9438       7.0789395
       6627.9548       6.9291641
       6628.9657       7.4492116
       6629.9767       7.3606783
       6630.9877       7.4551452
       6631.9987       7.5285093
       6633.0096       7.9536089
       6634.0206       7.3539948
       6635.0316       7.6253562
       6636.0425       7.3366960
       6637.0535       7.5136813
       6638.0645       7.2515974
       6639.0754       7.4953338
       6640.0864       7.4239949
       6641.0974       7.2112769
       6642.1083       7.2116505
       6643.1193       7.4118387
       6644.1303       7.5994526
       6645.1412       7.1330060
       6646.1522       7.1777848
       6647.1632       7.6675823
       6648.1741       7.6677517
       6649.1851       7.5777201
       6650.1961       7.5302312
       6651.2070       7.3613653
       6652.2180       7.2482625
       6653.2290       7.1532324
       6654.2399       7.2652182
       6655.2509       6.9799882
       6656.2619       7.3060669
       6657.2728       7.0123616
       6658.2838       7.1553711
       6659.2948       7.2563598
       6660.3057       7.1198141
       6661.3167       6.7916996
       6662.3277       6.8705432
       6663.3386       6.4487551
       6664.3496       7.1585830
       6665.3606       7.2585558
       6666.3716       7.3389098
       6667.3825       7.4705381
       6668.3935       8.2352045
       6669.4045       7.7835865
       6670.4154       8.2464484
       6671.4264       7.5942438
       6672.4374       7.7429284
       6673.4483       7.8628380
       6674.4593       7.8737451
       6675.4703       7.7082028
       6676.4812       7.6204913
       6677.4922       7.4383071
       6678.5032       7.3386517
       6679.5141       7.4889992
       6680.5251       7.4108629
       6681.5361       7.7087555
       6682.5470       7.6242481
       6683.5580       7.6961162
       6684.5690       7.4871488
       6685.5799       7.7233970
       6686.5909       7.8815896
       6687.6019       7.7103312
       6688.6128       7.7620464
       6689.6238       7.7749206
       6690.6348       7.6332506
       6691.6457       7.7640418
       6692.6567       7.6462843
       6693.6677       7.6381746
       6694.6786       7.5543693
       6695.6896       7.9567666
       6696.7006       8.0868159
       6697.7115       7.8553928
       6698.7225       8.1827132
       6699.7335       7.9844632
       6700.7445       8.1118134
       6701.7554       8.0431579
       6702.7664       8.2248975
       6703.7774       8.1930504
       6704.7883       8.3573239
       6705.7993       8.3503309
       6706.8103       8.6309076
       6707.8212       8.6956327
       6708.8322       9.7915759
       6709.8432       10.362531
       6710.8541       10.489369
       6711.8651       11.457077
       6712.8761       11.164884
       6713.8870       11.027330
       6714.8980       10.517135
       6715.9090       10.525299
       6716.9199       10.099044
       6717.9309       9.9697980
       6718.9419       10.059120
       6719.9528       10.147627
       6720.9638       10.279706
       6721.9748       10.336485
       6722.9857       10.554027
       6723.9967       11.070343
       6725.0077       10.891831
       6726.0186       11.226810
       6727.0296       11.177338
       6728.0406       11.513014
       6729.0515       11.117238
       6730.0625       10.471466
       6731.0735       10.197747
       6732.0845       9.7631628
       6733.0954       9.3318838
       6734.1064       8.9782833
       6735.1174       8.5436696
       6736.1283       8.7496336
       6737.1393       8.0162175
       6738.1503       7.8391127
       6739.1612       7.6689188
       6740.1722       7.4816345
       6741.1832       7.6260171
       6742.1941       7.5762376
       6743.2051       7.6395317
       6744.2161       7.4494576
       6745.2270       7.7032379
       6746.2380       7.2355506
       6747.2490       7.4698654
       6748.2599       7.4544088
       6749.2709       7.3303185
       6750.2819       7.2414350
       6751.2928       7.3867570
       6752.3038       7.1488142
       6753.3148       7.6877514
       6754.3257       7.7877951
       6755.3367       7.4454582
       6756.3477       7.3214318
       6757.3586       7.3407491
       6758.3696       7.6252170
       6759.3806       7.8040118
       6760.3915       7.7806404
       6761.4025       7.7818900
       6762.4135       7.8089222
       6763.4244       7.7857092
       6764.4354       7.3248337
       6765.4464       7.6729715
       6766.4574       7.4005408
       6767.4683       7.2805342
       6768.4793       7.3899190
       6769.4903       7.3963348
       6770.5012       7.2288429
       6771.5122       7.3370341
       6772.5232       7.5091611
       6773.5341       7.3652865
       6774.5451       7.3631842
       6775.5561       7.5102613
       6776.5670       7.4020355
       6777.5780       7.3731425
       6778.5890       7.5092820
       6779.5999       7.2548406
       6780.6109       7.8036382
       6781.6219       7.2230124
       6782.6328       7.4054701
       6783.6438       7.4193116
       6784.6548       7.5976400
       6785.6657       7.6961244
       6786.6767       7.5849167
       6787.6877       7.2431558
       6788.6986       7.2886223
       6789.7096       7.5541763
       6790.7206       7.3565657
       6791.7315       7.5817220
       6792.7425       7.6079541
       6793.7535       7.4796992
       6794.7644       7.9058452
       6795.7754       7.5902279
       6796.7864       7.4818948
       6797.7973       7.4938203
       6798.8083       7.1610338
       6799.8193       7.3467931
       6800.8303       7.4891525
       6801.8412       7.2776859
       6802.8522       7.2952907
       6803.8632       7.3516961
       6804.8741       7.2288280
       6805.8851       7.3008750
       6806.8961       7.1857867
       6807.9070       7.5225407
       6808.9180       7.6565187
       6809.9290       7.4033817
       6810.9399       7.2198985
       6811.9509       7.5214195
       6812.9619       7.4127313
       6813.9728       7.3442180
       6814.9838       7.5307886
       6815.9948       7.2640740
       6817.0057       7.7234085
       6818.0167       7.5327153
       6819.0277       7.7224859
       6820.0386       7.4304144
       6821.0496       7.7196465
       6822.0606       7.4030140
       6823.0715       7.4777735
       6824.0825       7.6592259
       6825.0935       7.4888179
       6826.1044       7.6226916
       6827.1154       7.5899979
       6828.1264       7.6151417
       6829.1373       7.5993550
       6830.1483       7.5766226
       6831.1593       7.5458697
       6832.1702       7.4380227
       6833.1812       7.4363803
       6834.1922       7.2607425
       6835.2032       7.1822503
       6836.2141       7.3806823
       6837.2251       7.4332911
       6838.2361       7.2123404
       6839.2470       7.2885245
       6840.2580       7.3979645
       6841.2690       7.3048671
       6842.2799       7.2664612
       6843.2909       7.6340747
       6844.3019       7.6196520
       6845.3128       7.3667409
       6846.3238       7.5929829
       6847.3348       7.3325018
       6848.3457       7.2733656
       6849.3567       7.4125675
       6850.3677       7.4248957
       6851.3786       7.3631943
       6852.3896       6.9643914
       6853.4006       7.2399037
       6854.4115       7.3309039
       6855.4225       7.2157167
       6856.4335       7.2862198
       6857.4444       7.3670032
       6858.4554       7.4381151
       6859.4664       7.2891533
       6860.4773       7.3646228
       6861.4883       7.5471110
       6862.4993       7.7096617
       6863.5102       7.7597245
       6864.5212       7.6649014
       6865.5322       7.6452786
       6866.5432       7.7314166
       6867.5541       7.4677167
       6868.5651       7.5408274
       6869.5761       7.3090529
       6870.5870       7.3849151
       6871.5980       7.2467977
       6872.6090       7.3978105
       6873.6199       7.4081824
       6874.6309       7.4351427
       6875.6419       7.3100588
       6876.6528       7.3014241
       6877.6638       7.4460288
       6878.6748       7.1197406
       6879.6857       6.9501819
       6880.6967       7.1484704
       6881.7077       7.2738762
       6882.7186       7.3060425
       6883.7296       7.4511880
       6884.7406       7.5978236
       6885.7515       7.6884919
       6886.7625       7.6235368
       6887.7735       7.5038909
       6888.7844       7.4894024
       6889.7954       7.5386581
       6890.8064       7.5038029
       6891.8173       7.3403910
       6892.8283       7.3582438
       6893.8393       7.4102673
       6894.8502       7.4584772
       6895.8612       7.4560353
       6896.8722       7.5909182
       6897.8831       7.5025626
       6898.8941       7.4301297
       6899.9051       7.2813090
       6900.9161       7.3834250
       6901.9270       7.3805884
       6902.9380       7.4309231
       6903.9490       7.4007039
       6904.9599       7.4714057
       6905.9709       7.4097637
       6906.9819       7.5389676
       6907.9928       7.5155503
       6909.0038       7.4945697
       6910.0148       7.5239092
       6911.0257       7.5863657
       6912.0367       7.6778816
       6913.0477       7.5071874
       6914.0586       7.7042584
       6915.0696       7.6912324
       6916.0806       7.6490629
       6917.0915       7.5608667
       6918.1025       7.4647454
       6919.1135       7.6380853
       6920.1244       7.4180403
       6921.1354       7.5188856
       6922.1464       7.4095272
       6923.1573       7.3249278
       6924.1683       7.3855289
       6925.1793       7.5388375
       6926.1902       7.5290514
       6927.2012       7.4091101
       6928.2122       7.0900374
       6929.2231       7.3022024
       6930.2341       7.0941985
       6931.2451       7.1137971
       6932.2560       7.1340757
       6933.2670       7.0771391
       6934.2780       7.3697429
       6935.2890       7.2202933
       6936.2999       7.6769718
       6937.3109       7.5231336
       6938.3219       7.6056838
       6939.3328       7.6802133
       6940.3438       7.3294414
       6941.3548       7.4036420
       6942.3657       7.6278848
       6943.3767       7.4013985
       6944.3877       7.3575425
       6945.3986       7.3547483
       6946.4096       7.3490530
       6947.4206       7.6526083
       6948.4315       7.5763983
       6949.4425       7.4760880
       6950.4535       7.5741189
       6951.4644       7.5156000
       6952.4754       7.5738164
       6953.4864       7.5916996
       6954.4973       7.5301499
       6955.5083       7.7203017
       6956.5193       7.5097657
       6957.5302       7.4744118
       6958.5412       7.3766915
       6959.5522       7.5416379
       6960.5631       7.9151342
       6961.5741       7.7525237
       6962.5851       7.9511960
       6963.5960       8.1503696
       6964.6070       7.8646017
       6965.6180       7.7675698
       6966.6290       7.7424657
       6967.6399       7.5567375
       6968.6509       7.5011203
       6969.6619       7.4631594
       6970.6728       7.3250324
       6971.6838       7.4861752
       6972.6948       7.1963487
       6973.7057       7.8017978
       6974.7167       7.9233231
       6975.7277       8.2061481
       6976.7386       7.8151446
       6977.7496       7.6240023
       6978.7606       7.8541367
       6979.7715       7.7518648
       6980.7825       8.0698135
       6981.7935       8.0585120
       6982.8044       7.6528623
       6983.8154       8.0220781
       6984.8264       7.8794228
       6985.8373       7.6642171
       6986.8483       7.2828059
       6987.8593       7.4950862
       6988.8702       8.1368568
       6989.8812       8.2805460
       6990.8922       8.3948093
       6991.9031       9.1174097
       6992.9141       8.5189250
       6993.9251       8.0337284
       6994.9360       8.0079142
       6995.9470       7.6350595
       6996.9580       7.3645281
       6997.9689       7.4812989
       6998.9799       7.5174697
       6999.9909       7.5779374
       7001.0019       7.7416673
       7002.0128       7.9000119
       7003.0238       8.0821675
       7004.0348       8.0375870
       7005.0457       7.9168920
       7006.0567       7.8584914
       7007.0677       7.4871341
       7008.0786       7.6902728
       7009.0896       7.6168145
       7010.1006       7.5696748
       7011.1115       7.4783411
       7012.1225       7.6907232
       7013.1335       7.5381877
       7014.1444       7.3485639
       7015.1554       7.3685736
       7016.1664       7.4863659
       7017.1773       7.6079017
       7018.1883       7.6387567
       7019.1993       7.5446386
       7020.2102       7.3881887
       7021.2212       7.3323723
       7022.2322       7.3205831
       7023.2431       7.4218317
       7024.2541       7.2024397
       7025.2651       7.0204311
       7026.2760       7.3431421
       7027.2870       8.0141217
       7028.2980       7.9038365
       7029.3089       8.4316674
       7030.3199       7.6923963
       7031.3309       8.3809932
       7032.3418       8.6202882
       7033.3528       7.5921001
       7034.3638       8.0217613
       7035.3748       7.8756195
       7036.3857       7.9165066
       7037.3967       8.3930817
       7038.4077       7.8739571
       7039.4186       8.1998629
       7040.4296       7.7834775
       7041.4406       7.6421408
       7042.4515       7.5939488
       7043.4625       7.6088976
       7044.4735       7.6091370
       7045.4844       7.7749918
       7046.4954       7.7410099
       7047.5064       7.6427396
       7048.5173       7.5703640
       7049.5283       7.5791328
       7050.5393       7.5014501
       7051.5502       7.5517866
       7052.5612       7.6706534
       7053.5722       7.2781145
       7054.5831       7.4493968
       7055.5941       7.4069192
       7056.6051       7.1885403
       7057.6160       7.4230026
       7058.6270       7.6495995
       7059.6380       7.7420251
       7060.6489       7.8550533
       7061.6599       7.7414456
       7062.6709       7.8700175
       7063.6818       7.7931939
       7064.6928       7.8566192
       7065.7038       7.6097594
       7066.7148       7.5126093
       7067.7257       7.4376444
       7068.7367       7.2315366
       7069.7477       7.4318757
       7070.7586       6.7666758
       7071.7696       6.5920979
       7072.7806       7.0672804
       7073.7915       7.2756658
       7074.8025       6.4981290
       7075.8135       6.8037979
       7076.8244       7.4779610
       7077.8354       7.9705951
       7078.8464       7.9836004
       7079.8573       7.9814266
       7080.8683       7.4588021
       7081.8793       7.1949432
       7082.8902       7.2009592
       7083.9012       7.2357002
       7084.9122       7.2777670
       7085.9231       7.3304821
       7086.9341       7.4596189
       7087.9451       7.7087679
       7088.9560       7.7903352
       7089.9670       7.9066854
       7090.9780       8.2009191
       7091.9889       7.8065126
       7092.9999       7.5786784
       7094.0109       7.3753192
       7095.0218       7.3606175
       7096.0328       7.0502107
       7097.0438       6.9316163
       7098.0547       7.1864371
       7099.0657       7.5685776
       7100.0767       8.1375140
       7101.0877       8.4432085
       7102.0986       8.5655128
       7103.1096       8.6168660
       7104.1206       8.7431159
       7105.1315       8.0523409
       7106.1425       7.8546960
       7107.1535       7.1784692
       7108.1644       7.3319763
       7109.1754       7.3492568
       7110.1864       7.2885066
       7111.1973       7.4041912
       7112.2083       7.4544373
       7113.2193       7.5035186
       7114.2302       7.6263281
       7115.2412       7.4764840
       7116.2522       7.1739802
       7117.2631       7.5881379
       7118.2741       7.8241855
       7119.2851       7.7473644
       7120.2960       7.6345471
       7121.3070       7.7019872
       7122.3180       7.7563122
       7123.3289       7.4617790
       7124.3399       7.6528392
       7125.3509       7.2922987
       7126.3618       6.9349223
       7127.3728       7.1326546
       7128.3838       7.3848622
       7129.3947       7.6136043
       7130.4057       8.1801549
       7131.4167       7.7923356
       7132.4276       8.2310105
       7133.4386       8.5363596
       7134.4496       8.2208612
       7135.4606       7.9593164
       7136.4715       7.8707445
       7137.4825       7.5595949
       7138.4935       7.3773080
       7139.5044       7.3656450
       7140.5154       7.6305289
       7141.5264       7.3980356
       7142.5373       7.2651424
       7143.5483       7.3270827
       7144.5593       7.4566839
       7145.5702       7.3742817
       7146.5812       7.2443325
       7147.5922       7.3083615
       7148.6031       7.3754841
       7149.6141       7.5690611
       7150.6251       7.3525830
       7151.6360       7.4341203
       7152.6470       7.5856063
       7153.6580       7.7507247
       7154.6689       7.9374422
       7155.6799       7.7747544
       7156.6909       7.8366608
       7157.7018       7.6163586
       7158.7128       7.5292298
       7159.7238       7.2938440
       7160.7347       7.3421179
       7161.7457       7.4218348
       7162.7567       7.6039530
       7163.7676       7.6748565
       7164.7786       7.9009369
       7165.7896       7.9642758
       7166.8005       8.1748707
       7167.8115       7.9066567
       7168.8225       7.6779509
       7169.8335       7.4229512
       7170.8444       7.5163131
       7171.8554       7.4775974
       7172.8664       7.4791611
       7173.8773       7.2687480
       7174.8883       7.2812463
       7175.8993       7.2943912
       7176.9102       7.3020509
       7177.9212       7.4742275
       7178.9322       7.3944310
       7179.9431       7.3250069
       7180.9541       7.1938017
       7181.9651       7.0955922
       7182.9760       7.2308926
       7183.9870       7.0809885
       7184.9980       6.9411953
       7186.0089       7.2337491
       7187.0199       7.0768708
       7188.0309       7.1007069
       7189.0418       7.2210008
       7190.0528       7.2665646
       7191.0638       7.1491838
       7192.0747       7.3287414
       7193.0857       7.3288783
       7194.0967       7.1407456
       7195.1076       7.5096166
       7196.1186       7.3702174
       7197.1296       7.2394731
       7198.1405       7.2803090
       7199.1515       7.4735310
       7200.1625       7.6873327
       7201.1735       7.5429017
       7202.1844       7.4320922
       7203.1954       7.5953103
       7204.2064       7.6506703
       7205.2173       7.3664274
       7206.2283       7.1890307
       7207.2393       7.1486348
       7208.2502       7.3025928
       7209.2612       7.5528198
       7210.2722       7.9474495
       7211.2831       7.4631183
       7212.2941       7.3478676
       7213.3051       7.2879285
       7214.3160       7.1782572
       7215.3270       7.4170998
       7216.3380       7.2682606
       7217.3489       7.4066211
       7218.3599       7.3908441
       7219.3709       7.3373452
       7220.3818       7.2377264
       7221.3928       7.1412138
       7222.4038       7.2247887
       7223.4147       7.2689288
       7224.4257       7.5204688
       7225.4367       7.6296628
       7226.4476       7.4764503
       7227.4586       7.5640636
       7228.4696       7.5875616
       7229.4805       7.5268545
       7230.4915       7.5093445
       7231.5025       7.5749047
       7232.5134       7.5365587
       7233.5244       7.4750656
       7234.5354       7.4318945
       7235.5464       7.4841414
       7236.5573       7.5575232
       7237.5683       7.4016371
       7238.5793       7.7295291
       7239.5902       7.6590003
       7240.6012       7.5093769
       7241.6122       7.6595410
       7242.6231       7.8198988
       7243.6341       7.5167986
       7244.6451       7.6103596
       7245.6560       7.4822440
       7246.6670       7.6862609
       7247.6780       7.6271638
       7248.6889       7.4901756
       7249.6999       7.6443156
       7250.7109       7.5710542
       7251.7218       7.7010512
       7252.7328       7.6454946
       7253.7438       7.4440018
       7254.7547       7.4190820
       7255.7657       7.5047730
       7256.7767       7.4672889
       7257.7876       7.4700640
       7258.7986       7.3927385
       7259.8096       7.4816904
       7260.8205       7.6063974
       7261.8315       7.6255186
       7262.8425       8.0426174
       7263.8534       7.6362102
       7264.8644       8.1373076
       7265.8754       8.3033658
       7266.8863       8.1918071
       7267.8973       7.8373425
       7268.9083       8.2274848
       7269.9193       7.9095559
       7270.9302       7.9609464
       7271.9412       8.0573502
       7272.9522       7.9609661
       7273.9631       8.3558418
       7274.9741       8.1950257
       7275.9851       8.1312320
       7276.9960       7.8219140
       7278.0070       7.9764086
       7279.0180       8.2298553
       7280.0289       8.0499286
       7281.0399       8.1629056
       7282.0509       7.8763773
       7283.0618       7.8761448
       7284.0728       7.8796334
       7285.0838       7.9243008
       7286.0947       7.7617744
       7287.1057       7.8983862
       7288.1167       8.0701551
       7289.1276       8.0751674
       7290.1386       8.1608871
       7291.1496       8.3169113
       7292.1605       8.6853701
       7293.1715       8.4307740
       7294.1825       8.4601673
       7295.1934       7.9437884
       7296.2044       8.3257208
       7297.2154       8.5848159
       7298.2263       8.0274961
       7299.2373       8.3769959
       7300.2483       8.5100871
       7301.2593       8.5638054
       7302.2702       8.3802521
       7303.2812       8.4184752
       7304.2922       8.1789983
       7305.3031       8.3308410
       7306.3141       8.4187614
       7307.3251       8.3602530
       7308.3360       8.3210546
       7309.3470       8.2677211
       7310.3580       8.4034874
       7311.3689       8.5771925
       7312.3799       8.5075537
       7313.3909       8.3198873
       7314.4018       8.3255961
       7315.4128       8.7145408
       7316.4238       8.5975211
       7317.4347       8.4351214
       7318.4457       8.6447576
       7319.4567       8.4729883
       7320.4676       8.4944125
       7321.4786       8.4533883
       7322.4896       8.3955183
       7323.5005       8.5061570
       7324.5115       8.5274824
       7325.5225       8.3753695
       7326.5334       8.4683532
       7327.5444       8.3689624
       7328.5554       8.1291721
       7329.5663       8.3913997
       7330.5773       8.3551080
       7331.5883       8.2221345
       7332.5992       8.4583540
       7333.6102       8.1271124
       7334.6212       8.1876580
       7335.6322       8.1410807
       7336.6431       8.2813695
       7337.6541       8.2352621
       7338.6651       8.2333485
       7339.6760       8.1441342
       7340.6870       8.1239700
       7341.6980       7.8790612
       7342.7089       8.0500901
       7343.7199       8.1243608
       7344.7309       8.1520792
       7345.7418       8.3229106
       7346.7528       8.1362392
       7347.7638       7.9406394
       7348.7747       7.9921463
       7349.7857       8.0988142
       7350.7967       7.9194059
       7351.8076       8.0910318
       7352.8186       7.8899498
       7353.8296       7.8818455
       7354.8405       7.9756493
       7355.8515       7.8681747
       7356.8625       7.7789078
       7357.8734       7.8738034
       7358.8844       7.7874194
       7359.8954       8.0189844
       7360.9063       8.0980815
       7361.9173       8.0824047
       7362.9283       7.9723630
       7363.9392       8.0568188
       7364.9502       8.2075411
       7365.9612       8.0838027
       7366.9721       8.1522869
       7367.9831       8.4218997
       7368.9941       8.2017580
       7370.0051       8.2426581
       7371.0160       8.3059021
       7372.0270       8.3363371
       7373.0380       8.1643332
       7374.0489       8.2182832
       7375.0599       8.2067218
       7376.0709       8.2562767
       7377.0818       8.4036211
       7378.0928       8.6172043
       7379.1038       8.7614676
       7380.1147       8.8749855
       7381.1257       8.1253147
       7382.1367       8.7702194
       7383.1476       9.0692868
       7384.1586       8.7841581
       7385.1696       8.2314893
       7386.1805       8.8742961
       7387.1915       9.2808163
       7388.2025       9.0556205
       7389.2134       8.6810640
       7390.2244       8.1088962
       7391.2354       7.9061695
       7392.2463       8.5021314
       7393.2573       9.1147681
       7394.2683       8.8113165
       7395.2792       9.1104728
       7396.2902       8.9574169
       7397.3012       8.7981281
       7398.3121       8.8389626
       7399.3231       8.6524695
       7400.3341       8.0707875
       7401.3450       7.8820842
       7402.3560       7.8500275
       7403.3670       8.0368453
       7404.3780       8.0587195
       7405.3889       8.4774818
       7406.3999       8.3337683
       7407.4109       8.4183913
       7408.4218       8.3617226
       7409.4328       7.9801936
       7410.4438       7.8691210
       7411.4547       7.9664171
       7412.4657       7.9213642
       7413.4767       7.8713992
       7414.4876       7.8040797
       7415.4986       7.9130924
       7416.5096       7.8956212
       7417.5205       8.0132728
       7418.5315       7.8410595
       7419.5425       8.1366448
       7420.5534       8.1102411
       7421.5644       8.1483625
       7422.5754       7.8940188
       7423.5863       8.3424544
       7424.5973       8.3576472
       7425.6083       8.1248527
       7426.6192       8.1001994
       7427.6302       8.1700346
       7428.6412       7.9444130
       7429.6521       8.0599714
       7430.6631       7.3736775
       7431.6741       7.3165617
       7432.6850       8.3351583
       7433.6960       9.0116391
       7434.7070       8.5392452
       7435.7180       8.7164801
       7436.7289       9.5397247
       7437.7399       10.667069
       7438.7509       9.4054702
       7439.7618       7.7553939
       7440.7728       8.1461994
       7441.7838       8.2186144
       7442.7947       8.9478237
       7443.8057       8.8884141
       7444.8167       9.1784966
       7445.8276       9.3476355
       7446.8386       8.9925544
       7447.8496       8.5731643
       7448.8605       8.4611008
       7449.8715       8.1418605
       7450.8825       8.0570991
       7451.8934       8.3474636
       7452.9044       8.6783309
       7453.9154       8.5611496
       7454.9263       8.7338091
       7455.9373       8.7090876
       7456.9483       8.6816307
       7457.9592       8.5581849
       7458.9702       8.1424422
       7459.9812       8.1162580
       7460.9921       8.2747953
       7462.0031       8.2090151
       7463.0141       8.3618811
       7464.0250       8.6777645
       7465.0360       8.3833609
       7466.0470       7.8151886
       7467.0579       8.4195376
       7468.0689       8.5679605
       7469.0799       9.2138230
       7470.0909       8.6897327
       7471.1018       8.7569859
       7472.1128       9.3694456
       7473.1238       8.8474927
       7474.1347       8.6277251
       7475.1457       8.2665503
       7476.1567       8.3636761
       7477.1676       8.5071911
       7478.1786       8.3479541
       7479.1896       8.3339961
       7480.2005       7.8345729
       7481.2115       7.6042810
       7482.2225       9.0716696
       7483.2334       9.6342186
       7484.2444       9.6116968
       7485.2554       9.2158650
       7486.2663       9.8432519
       7487.2773       10.334284
       7488.2883       9.1741132
       7489.2992       8.3597641
       7490.3102       8.2327145
       7491.3212       8.1553978
       7492.3321       8.5422079
       7493.3431       8.3914580
       7494.3541       8.3800554
       7495.3650       8.0995314
       7496.3760       8.1818402
       7497.3870       9.0326449
       7498.3979       8.9146754
       7499.4089       9.1333776
       7500.4199       9.2228867
       7501.4308       9.6679350
       7502.4418       9.2195549
       7503.4528       8.8559920
       7504.4638       8.7055616
       7505.4747       8.5622840
       7506.4857       8.5749037
       7507.4967       8.3854705
       7508.5076       8.1054447
       7509.5186       7.2423492
       7510.5296       7.8283459
       7511.5405       9.1566818
       7512.5515       9.9752305
       7513.5625       9.6310531
       7514.5734       10.378398
       7515.5844       10.806337
       7516.5954       10.443354
       7517.6063       8.9780582
       7518.6173       8.8607576
       7519.6283       8.5359013
       7520.6392       8.5176777
       7521.6502       8.7801210
       7522.6612       8.6031280
       7523.6721       8.4302391
       7524.6831       8.6577174
       7525.6941       8.5372681
       7526.7050       8.5897838
       7527.7160       8.6111634
       7528.7270       8.3284173
       7529.7379       8.0378592
       7530.7489       8.5844163
       7531.7599       8.9889796
       7532.7708       9.2815958
       7533.7818       9.1598763
       7534.7928       8.8785819
       7535.8038       9.6073783
       7536.8147       9.0286854
       7537.8257       8.7704156
       7538.8367       8.4929344
       7539.8476       8.5360785
       7540.8586       8.5073354
       7541.8696       7.7946730
       7542.8805       7.9579397
       7543.8915       8.8551225
       7544.9025       8.7534335
       7545.9134       9.2046453
       7546.9244       10.015005
       7547.9354       10.153211
       7548.9463       9.5402752
       7549.9573       9.4308069
       7550.9683       9.0746501
       7551.9792       8.9253932
       7552.9902       9.1273825
       7554.0012       8.8270654
       7555.0121       8.9869909
       7556.0231       8.7276033
       7557.0341       8.5848930
       7558.0450       8.5307140
       7559.0560       8.6506314
       7560.0670       8.6272854
       7561.0779       8.4835624
       7562.0889       8.3717843
       7563.0999       8.2770107
       7564.1108       8.5138721
       7565.1218       8.6714466
       7566.1328       8.6064964
       7567.1437       8.4045115
       7568.1547       8.2463922
       7569.1657       8.3319634
       7570.1767       8.3706306
       7571.1876       8.4965488
       7572.1986       8.3474633
       7573.2096       8.4808549
       7574.2205       8.6792010
       7575.2315       8.6976594
       7576.2425       8.3446273
       7577.2534       8.5023411
       7578.2644       8.1242642
       7579.2754       8.2110149
       7580.2863       8.6154411
       7581.2973       8.8355476
       7582.3083       8.7004269
       7583.3192       8.8540276
       7584.3302       9.3214668
       7585.3412       9.1060704
       7586.3521       8.5135552
       7587.3631       8.3888501
       7588.3741       8.4718754
       7589.3850       8.4601694
       7590.3960       8.3796587
       7591.4070       8.4369004
       7592.4179       8.1516175
       7593.4289       8.2500841
       7594.4399       8.2152193
       7595.4508       8.0002460
       7596.4618       8.1757772
       7597.4728       8.1802373
       7598.4837       8.2736075
       7599.4947       8.3055058
       7600.5057       8.1001226
       7601.5166       8.4870014
       7602.5276       8.3126571
       7603.5386       8.1969140
       7604.5496       8.3305550
       7605.5605       8.2256738
       7606.5715       8.2093013
       7607.5825       8.4374617
       7608.5934       8.1149602
       7609.6044       8.2740499
       7610.6154       8.6930356
       7611.6263       8.7291679
       7612.6373       8.6465984
       7613.6483       8.6922203
       7614.6592       8.9503546
       7615.6702       8.9666620
       7616.6812       8.6673850
       7617.6921       8.4239012
       7618.7031       8.5376156
       7619.7141       8.5293877
       7620.7250       9.0116120
       7621.7360       9.6157083
       7622.7470       8.9436649
       7623.7579       8.5727229
       7624.7689       8.6687609
       7625.7799       8.9508782
       7626.7908       8.8344735
       7627.8018       8.4847909
       7628.8128       8.5169693
       7629.8237       8.5560332
       7630.8347       8.5150665
       7631.8457       8.6293255
       7632.8566       8.3625412
       7633.8676       8.3867398
       7634.8786       8.4139226
       7635.8895       8.4832977
       7636.9005       8.5742764
       7637.9115       8.7842663
       7638.9225       8.6558719
       7639.9334       8.3852739
       7640.9444       8.2989357
       7641.9554       8.4845961
       7642.9663       8.2162784
       7643.9773       8.2827404
       7644.9883       8.4351999
       7645.9992       8.4067243
       7647.0102       8.1879367
       7648.0212       8.2640599
       7649.0321       8.0711626
       7650.0431       8.3480385
       7651.0541       8.1915173
       7652.0650       8.1990709
       7653.0760       8.2517439
       7654.0870       7.9808067
       7655.0979       7.9730474
       7656.1089       7.9610814
       7657.1199       8.1397742
       7658.1308       8.1275597
       7659.1418       8.1900727
       7660.1528       8.1560800
       7661.1637       8.5024680
       7662.1747       8.2232980
       7663.1857       8.1828568
       7664.1966       7.9643177
       7665.2076       8.2651882
       7666.2186       8.3420056
       7667.2295       8.4097946
       7668.2405       8.4544287
       7669.2515       8.6156519
       7670.2625       8.7677926
       7671.2734       8.6259786
       7672.2844       8.4308173
       7673.2954       8.4256745
       7674.3063       8.4747142
       7675.3173       8.5434910
       7676.3283       8.7261607
       7677.3392       8.9191948
       7678.3502       8.6509270
       7679.3612       8.4440439
       7680.3721       8.3770414
       7681.3831       8.5781494
       7682.3941       8.5526199
       7683.4050       8.8863655
       7684.4160       8.7228522
       7685.4270       8.7613282
       7686.4379       8.5805894
       7687.4489       8.4051776
       7688.4599       8.5548589
       7689.4708       8.4924551
       7690.4818       8.4663275
       7691.4928       8.2782453
       7692.5037       8.0813393
       7693.5147       8.1840371
       7694.5257       8.2042985
       7695.5366       8.1878363
       7696.5476       8.1709774
       7697.5586       8.2835274
       7698.5695       8.2829312
       7699.5805       8.4783616
       7700.5915       8.7320305
       7701.6024       8.5170977
       7702.6134       8.5910146
       7703.6244       8.6110539
       7704.6354       8.4925664
       7705.6463       8.5888454
       7706.6573       8.4825315
       7707.6683       8.5203987
       7708.6792       8.2244950
       7709.6902       8.2957972
       7710.7012       8.1064985
       7711.7121       8.2712715
       7712.7231       8.2277698
       7713.7341       8.4689375
       7714.7450       8.4282254
       7715.7560       8.6985723
       7716.7670       8.8539489
       7717.7779       8.8321777
       7718.7889       8.8694890
       7719.7999       8.8634741
       7720.8108       8.3201998
       7721.8218       8.6820005
       7722.8328       8.5795738
       7723.8437       8.8608957
       7724.8547       8.6572503
       7725.8657       8.6315685
       7726.8766       8.6667504
       7727.8876       8.5761155
       7728.8986       8.3996948
       7729.9095       8.5112120
       7730.9205       8.6256132
       7731.9315       8.9210971
       7732.9424       8.9457019
       7733.9534       8.7759116
       7734.9644       8.7993328
       7735.9753       8.7569093
       7736.9863       8.7015883
       7737.9973       8.8540130
       7739.0083       8.8428342
       7740.0192       8.7416228
       7741.0302       8.8441432
       7742.0412       8.8595260
       7743.0521       8.7132354
       7744.0631       8.6376190
       7745.0741       8.6329911
       7746.0850       8.5825984
       7747.0960       8.7483072
       7748.1070       8.6590146
       7749.1179       8.7298985
       7750.1289       9.0388227
       7751.1399       9.2330899
       7752.1508       9.2208065
       7753.1618       9.0499921
       7754.1728       9.0320225
       7755.1837       8.8655991
       7756.1947       8.8272856
       7757.2057       8.8405908
       7758.2166       8.9814911
       7759.2276       8.8869075
       7760.2386       8.9664445
       7761.2495       9.1172584
       7762.2605       9.2545113
       7763.2715       9.1288180
       7764.2824       8.9532244
       7765.2934       8.6646121
       7766.3044       8.4132874
       7767.3153       8.6781610
       7768.3263       8.7653804
       7769.3373       8.6549085
       7770.3483       8.7311182
       7771.3592       9.0605631
       7772.3702       9.0107747
       7773.3812       9.0556475
       7774.3921       9.0482231
       7775.4031       9.0301045
       7776.4141       9.0817889
       7777.4250       8.9637977
       7778.4360       9.1913505
       7779.4470       9.1104571
       7780.4579       9.0642098
       7781.4689       8.9261167
       7782.4799       8.9068183
       7783.4908       8.9943711
       7784.5018       9.0038270
       7785.5128       8.9629222
       7786.5237       9.1256286
       7787.5347       8.9903729
       7788.5457       8.9727166
       7789.5566       9.3800619
       7790.5676       9.1959857
       7791.5786       9.0527807
       7792.5895       9.1206516
       7793.6005       9.0723609
       7794.6115       8.9630089
       7795.6224       9.1667388
       7796.6334       8.8849591
       7797.6444       9.0703856
       7798.6553       9.1870711
       7799.6663       9.1715585
       7800.6773       9.0849365
       7801.6882       9.1487573
       7802.6992       9.1196424
       7803.7102       9.2598438
       7804.7212       9.2457616
       7805.7321       9.2612436
       7806.7431       9.3702731
       7807.7541       9.1267541
       7808.7650       9.2317661
       7809.7760       9.4108212
       7810.7870       9.4330577
       7811.7979       9.2956514
       7812.8089       9.2853191
       7813.8199       9.1974601
       7814.8308       9.1535694
       7815.8418       9.1756257
       7816.8528       9.0218919
       7817.8637       9.0803068
       7818.8747       8.9090508
       7819.8857       9.1555063
       7820.8966       9.1417927
       7821.9076       9.0918348
       7822.9186       8.9106626
       7823.9295       9.1291861
       7824.9405       8.9796840
       7825.9515       9.2374965
       7826.9624       9.0360091
       7827.9734       9.2115999
       7828.9844       9.0966035
       7829.9953       8.7795817
       7831.0063       8.6923684
       7832.0173       8.6017834
       7833.0282       8.7146429
       7834.0392       8.7476796
       7835.0502       8.5288125
       7836.0611       8.1401069
       7837.0721       8.6806913
       7838.0831       9.6237994
       7839.0941       9.2604943
       7840.1050       9.0547688
       7841.1160       8.0612860
       7842.1270       8.2038620
       7843.1379       10.719928
       7844.1489       9.1021546
       7845.1599       8.8923604
       7846.1708       9.0508270
       7847.1818       10.173405
       7848.1928       9.4807472
       7849.2037       6.7478298
       7850.2147       6.7256059
       7851.2257       8.7489292
       7852.2366       9.7651056
       7853.2476       9.0076550
       7854.2586       8.0289290
       7855.2695       8.8084917
       7856.2805       9.6228873
       7857.2915       9.0770848
       7858.3024       8.2793459
       7859.3134       8.5462986
       7860.3244       8.3550750
       7861.3353       8.0796048
       7862.3463       7.2934406
       7863.3573       6.9457406
       7864.3682       6.9980997
       7865.3792       7.4159330
       7866.3902       7.7804073
       7867.4011       8.0758362
       7868.4121       7.8888599
       7869.4231       7.4520598
       7870.4341       6.6646708
       7871.4450       6.3831904
       7872.4560       6.3559645
       7873.4670       6.5865380
       7874.4779       7.7045063
       7875.4889       8.2597279
       7876.4999       8.4880356
       7877.5108       8.4798891
       7878.5218       8.0719884
       7879.5328       7.4738877
       7880.5437       6.9444101
       7881.5547       6.5321050
       7882.5657       6.8862570
       7883.5766       7.1085777
       7884.5876       7.3841585
       7885.5986       7.5290597
       7886.6095       8.2564433
       7887.6205       8.1814609
       7888.6315       8.0596243
       7889.6424       8.1330120
       7890.6534       7.5467461
       7891.6644       7.2978659
       7892.6753       6.7921556
       7893.6863       6.2734807
       7894.6973       3.9433322
       7895.7082       9.2052023
       7896.7192       8.6243850
       7897.7302       9.6807508
       7898.7411       9.6943628
       7899.7521       11.021338
       7900.7631       12.741952
       7901.7740       7.6680889
       7902.7850       6.4655512
       7903.7960       7.1597364
       7904.8070       7.5912946
       7905.8179       8.0351189
       7906.8289       7.9139185
       7907.8399       7.7737349
       7908.8508       8.3477451
       7909.8618       9.1334269
       7910.8728       8.6637714
       7911.8837       8.8800030
       7912.8947       8.7762758
       7913.9057       8.7454514
       7914.9166       8.7296764
       7915.9276       8.4759402
       7916.9386       8.1815632
       7917.9495       9.0692027
       7918.9605       8.6265521
       7919.9715       9.0163629
       7920.9824       8.8056803
       7921.9934       9.2030129
       7923.0044       9.2600587
       7924.0153       9.0539269
       7925.0263       8.6465543
       7926.0373       8.3355881
       7927.0482       8.1198471
       7928.0592       8.1863278
       7929.0702       8.1845380
       7930.0811       8.0241701
       7931.0921       8.1830646
       7932.1031       7.9613941
       7933.1140       9.2068227
       7934.1250       8.5597130
       7935.1360       8.3368202
       7936.1469       8.2896292
       7937.1579       9.0032339
       7938.1689       9.7847976
       7939.1799       8.0730654
       7940.1908       7.8309602
       7941.2018       7.4588061
       7942.2128       6.8978960
       7943.2237       6.8151384
       7944.2347       6.9276998
       7945.2457       7.5579730
       7946.2566       8.3798800
       7947.2676       8.2321618
       7948.2786       6.3426735
       7949.2895       8.1645567
       7950.3005       8.8881744
       7951.3115       8.5661249
       7952.3224       8.9099365
       7953.3334       8.9557760
       7954.3444       10.336417
       7955.3553       8.9630333
       7956.3663       7.1955234
       7957.3773       8.5643169
       7958.3882       8.5332347
       7959.3992       8.6460205
       7960.4102       9.2874053
       7961.4211       8.9308125
       7962.4321       8.7046916
       7963.4431       8.1402059
       7964.4540       7.5479700
       7965.4650       9.3292419
       7966.4760       8.9281652
       7967.4869       8.0559930
       7968.4979       7.9037212
       7969.5089       8.6363723
       7970.5198       9.4964785
       7971.5308       8.4550431
       7972.5418       8.0923037
       7973.5528       8.5203923
       7974.5637       8.7465025
       7975.5747       8.7657843
       7976.5857       8.6122710
       7977.5966       8.0953180
       7978.6076       8.2719600
       7979.6186       6.9026278
       7980.6295       7.7916103
       7981.6405       11.524246
       7982.6515       9.7431937
       7983.6624       9.5344781
       7984.6734       9.7197828
       7985.6844       10.992127
       7986.6953       9.7507005
       7987.7063       7.2932318
       7988.7173       7.9633397
       7989.7282       7.9439637
       7990.7392       8.5316305
       7991.7502       8.9213648
       7992.7611       9.0307560
       7993.7721       9.2789039
       7994.7831       8.7758832
       7995.7940       7.9626175
       7996.8050       8.0365339
       7997.8160       8.8672134
       7998.8269       8.1943847
       7999.8379       7.8049052
       8000.8489       7.5720070
       8001.8598       6.8613895
       8002.8708       7.8256919
       8003.8818       8.1717141
       8004.8928       8.1806475
       8005.9037       8.8567514
       8006.9147       8.9796310
       8007.9257       10.196294
       8008.9366       9.8228644
       8009.9476       8.9946783
       8010.9586       9.2292702
       8011.9695       9.3250900
       8012.9805       9.3862947
       8013.9915       9.2077616
       8015.0024       8.6306652
       8016.0134       7.7067917
       8017.0244       10.039589
       8018.0353       9.8129551
       8019.0463       9.1412994
       8020.0573       8.9961849
       8021.0682       9.4982263
       8022.0792       11.005122
       8023.0902       8.4345665
       8024.1011       8.0499940
       8025.1121       8.1482999
       8026.1231       8.7222483
       8027.1340       8.7771994
       8028.1450       8.6927544
       8029.1560       8.8919777
       8030.1669       8.9088593
       8031.1779       9.1016319
       8032.1889       9.4451765
       8033.1998       9.0511133
       8034.2108       9.1794021
       8035.2218       9.2241237
       8036.2327       9.1908465
       8037.2437       9.2332741
       8038.2547       8.7999340
       8039.2657       8.5952753
       8040.2766       8.4383597
       8041.2876       8.2123715
       8042.2986       8.0744744
       8043.3095       8.0270854
       8044.3205       8.5634163
       8045.3315       9.4884103
       8046.3424       9.5072777
       8047.3534       9.4860732
       8048.3644       9.3045177
       8049.3753       9.1308435
       8050.3863       9.6379941
       8051.3973       8.7047124
       8052.4082       8.5094112
       8053.4192       8.8421731
       8054.4302       8.9415109
       8055.4411       8.8023215
       8056.4521       8.4317211
       8057.4631       9.6091651
       8058.4740       9.6928277
       8059.4850       9.1394462
       8060.4960       9.1467275
       8061.5069       9.3590896
       8062.5179       10.682202
       8063.5289       9.7685011
       8064.5398       8.7747974
       8065.5508       9.1969619
       8066.5618       9.1218844
       8067.5727       9.2340718
       8068.5837       9.3674352
       8069.5947       9.0432758
       8070.6056       8.8701136
       8071.6166       8.6131834
       8072.6276       8.7667429
       8073.6386       8.9857423
       8074.6495       9.2995854
       8075.6605       9.0923758
       8076.6715       9.2263518
       8077.6824       9.1038351
       8078.6934       8.7081550
       8079.7044       8.7102819
       8080.7153       8.8834102
       8081.7263       8.7880468
       8082.7373       8.5978054
       8083.7482       8.8420431
       8084.7592       8.9504777
       8085.7702       8.8820809
       8086.7811       9.0626492
       8087.7921       8.8916232
       8088.8031       9.0512754
       8089.8140       8.9375919
       8090.8250       8.6361863
       8091.8360       9.2198366
       8092.8469       9.4183771
       8093.8579       9.5130568
       8094.8689       9.1082168
       8095.8798       9.7205069
       8096.8908       9.7201647
       8097.9018       9.7314831
       8098.9127       9.3482500
       8099.9237       9.1714603
       8100.9347       9.1227971
       8101.9456       9.0724388
       8102.9566       9.9129939
       8103.9676       10.283102
       8104.9786       9.5491330
       8105.9895       10.010198
       8107.0005       9.2320790
       8108.0115       10.446519
       8109.0224       9.5536696
       8110.0334       8.9860781
       8111.0444       9.0786145
       8112.0553       9.1013127
       8113.0663       9.3007253
       8114.0773       9.2864002
       8115.0882       9.1604844
       8116.0992       9.4016075
       8117.1102       9.2342791
       8118.1211       9.3702828
       8119.1321       8.9957511
       8120.1431       8.6468709
       8121.1540       8.3642284
       8122.1650       8.7280595
       8123.1760       9.0167883
       8124.1869       9.1412428
       8125.1979       9.2518267
       8126.2089       9.2203378
       8127.2198       9.2176415
       8128.2308       9.0294534
       8129.2418       9.2477185
       8130.2527       9.7106181
       8131.2637       9.6133638
       8132.2747       9.9440656
       8133.2856       9.3299769
       8134.2966       9.3009304
       8135.3076       9.6646546
       8136.3185       9.7673483
       8137.3295       9.5003812
       8138.3405       9.2899499
       8139.3515       9.6801245
       8140.3624       9.2315479
       8141.3734       8.9534994
       8142.3844       8.8484958
       8143.3953       9.3955218
       8144.4063       9.7369394
       8145.4173       9.4745858
       8146.4282       9.9535882
       8147.4392       10.035632
       8148.4502       10.262641
       8149.4611       9.7152089
       8150.4721       9.6771292
       8151.4831       9.7436731
       8152.4940       9.4797710
       8153.5050       9.9193754
       8154.5160       10.255909
       8155.5269       9.8242222
       8156.5379       10.410624
       8157.5489       10.963575
       8158.5598       11.647961
       8159.5708       11.760615
       8160.5818       10.975142
       8161.5927       9.7397564
       8162.6037       9.8712455
       8163.6147       9.5073450
       8164.6256       9.8605972
       8165.6366       10.018358
       8166.6476       9.9005380
       8167.6585       9.6071662
       8168.6695       8.8552761
       8169.6805       10.280611
       8170.6914       10.295624
       8171.7024       10.548666
       8172.7134       10.022514
       8173.7244       10.188233
       8174.7353       10.513474
       8175.7463       9.4557859
       8176.7573       9.3493788
       8177.7682       9.3040068
       8178.7792       8.7769120
       8179.7902       9.4653395
       8180.8011       9.5310338
       8181.8121       9.2457008
       8182.8231       9.8106382
       8183.8340       9.9250805
       8184.8450       9.7718398
       8185.8560       8.6137886
       8186.8669       9.8080685
       8187.8779       10.564658
       8188.8889       9.4782486
       8189.8998       9.8860443
       8190.9108       10.091588
       8191.9218       11.564238
       8192.9327       9.5647086
       8193.9437       8.9985550
       8194.9547       8.9581175
       8195.9656       9.1517084
       8196.9766       9.5863019
       8197.9876       9.8264345
       8198.9985       9.5677132
       8200.0095       9.6258257
       8201.0205       9.1003891
       8202.0314       9.2735445
       8203.0424       10.059274
       8204.0534       9.6628830
       8205.0643       9.4302851
       8206.0753       9.1713814
       8207.0863       9.4761643
       8208.0973       9.6152333
       8209.1082       9.4612543
       8210.1192       9.3349047
       8211.1302       9.5292928
       8212.1411       9.3891606
       8213.1521       9.3703506
       8214.1631       9.6684562
       8215.1740       9.4428029
       8216.1850       9.0248027
       8217.1960       9.1227183
       8218.2069       9.2073812
       8219.2179       9.0460497
       8220.2289       8.8523276
       8221.2398       8.8160753
       8222.2508       8.6853587
       8223.2618       8.9267233
       8224.2727       8.9703399
       8225.2837       8.8711958
       8226.2947       9.3357193
       8227.3056       9.2476885
       8228.3166       9.2016056
       8229.3276       9.1416356
       8230.3385       9.4332856
       8231.3495       9.5444657
       8232.3605       9.4598381
       8233.3714       9.4724753
       8234.3824       9.4781844
       8235.3934       9.4579606
       8236.4043       9.2861754
       8237.4153       9.1790347
       8238.4263       8.8410841
       8239.4373       8.8942363
       8240.4482       8.7036463
       8241.4592       8.8676733
       8242.4702       9.1248947
       8243.4811       9.4047554
       8244.4921       8.9351302
       8245.5031       7.9004596
       8246.5140       7.6965891
       8247.5250       11.891459
       8248.5360       10.966484
       8249.5469       10.416115
       8250.5579       10.695449
       8251.5689       11.980181
       8252.5798       11.863393
       8253.5908       7.8906652
       8254.6018       9.5722113
       8255.6127       9.9043162
       8256.6237       9.4618343
       8257.6347       9.8035233
       8258.6456       10.114964
       8259.6566       9.8700431
       8260.6676       10.092952
       8261.6785       9.1248491
       8262.6895       9.3155202
       8263.7005       9.1838066
       8264.7114       9.5830935
       8265.7224       9.7145437
       8266.7334       10.178158
       8267.7443       9.8408067
       8268.7553       9.6870073
       8269.7663       9.7233370
       8270.7772       9.7337563
       8271.7882       9.3488210
       8272.7992       9.5076129
       8273.8102       8.6460564
       8274.8211       8.7859644
       8275.8321       8.9520816
       8276.8431       9.1077022
       8277.8540       9.1593180
       8278.8650       9.1969817
       8279.8760       9.2139626
       8280.8869       8.9718387
       8281.8979       9.0282844
       8282.9089       9.0287034
       8283.9198       9.0155359
       8284.9308       8.6704399
       8285.9418       8.7712499
       8286.9527       8.9532364
       8287.9637       9.1921182
       8288.9747       8.7518299
       8289.9856       9.2369971
       8290.9966       8.8186097
       8292.0076       8.9912776
       8293.0185       9.1443409
       8294.0295       8.7574158
       8295.0405       8.5106227
       8296.0514       8.9170383
       8297.0624       9.2627190
       8298.0734       9.1055838
       8299.0843       8.9636332
       8300.0953       9.1576726
       8301.1063       9.5945868
       8302.1172       8.5613699
       8303.1282       8.5687122
       8304.1392       8.5130517
       8305.1501       8.6835332
       8306.1611       8.6733045
       8307.1721       8.6609992
       8308.1831       8.6510368
       8309.1940       8.7693798
       8310.2050       8.7290086
       8311.2160       8.8919039
       8312.2269       8.7051583
       8313.2379       8.8893735
       8314.2489       8.3724384
       8315.2598       8.0884234
       8316.2708       11.159175
       8317.2818       10.815415
       8318.2927       9.4563665
       8319.3037       9.9372398
       8320.3147       11.476975
       8321.3256       11.799624
       8322.3366       8.3383083
       8323.3476       8.6480569
       8324.3585       8.9814195
       8325.3695       8.9375217
       8326.3805       8.9777691
       8327.3914       8.9876956
       8328.4024       8.3794663
       8329.4134       8.5885809
       8330.4243       8.2657642
       8331.4353       8.6019507
       8332.4463       8.8198195
       8333.4572       7.9600081
       8334.4682       7.9460148
       8335.4792       8.9033931
       8336.4901       9.3410593
       8337.5011       9.4152253
       8338.5121       9.2888159
       8339.5231       9.8521900
       8340.5340       10.255904
       8341.5450       8.8671497
       8342.5560       8.5176354
       8343.5669       8.3261578
       8344.5779       8.4811413
       8345.5889       8.5759155
       8346.5998       8.2079405
       8347.6108       8.5261101
       8348.6218       8.1326540
       8349.6327       7.9392353
       8350.6437       7.2949322
       8351.6547       8.0875469
       8352.6656       10.186645
       8353.6766       9.5065926
       8354.6876       9.8245277
       8355.6985       10.156395
       8356.7095       10.580818
       8357.7205       12.164927
       8358.7314       8.0091144
       8359.7424       8.5027741
       8360.7534       8.3676876
       8361.7643       8.4350095
       8362.7753       8.5423098
       8363.7863       8.3871918
       8364.7972       8.3365385
       8365.8082       8.5689412
       8366.8192       8.2259406
       8367.8301       8.4680346
       8368.8411       8.2087576
       8369.8521       8.5416995
       8370.8630       8.5559608
       8371.8740       8.4902768
       8372.8850       8.2613141
       8373.8960       7.5432752
       8374.9069       7.6064183
       8375.9179       8.9853942
       8376.9289       8.6893686
       8377.9398       7.7644868
       8378.9508       9.7299389
       8379.9618       10.298167
       8380.9727       11.155322
       8381.9837       10.226754
       8382.9947       9.7038420
       8384.0056       10.446568
       8385.0166       9.7879326
       8386.0276       7.7803509
       8387.0385       7.0361391
       8388.0495       9.3415571
       8389.0605       9.1914078
       8390.0714       8.8930811
       8391.0824       7.6374420
       8392.0934       9.1048018
       8393.1043       11.034048
       8394.1153       6.5958947
       8395.1263       7.1996156
       8396.1372       8.7754278
       8397.1482       9.5804692
       8398.1592       9.8430954
       8399.1701       7.7481612
       8400.1811       7.8525685
       8401.1921       8.0758968
       8402.2030       8.4214496
       8403.2140       8.4031266
       8404.2250       8.2322223
       8405.2359       8.3435923
       8406.2469       9.0334812
       8407.2579       8.2525547
       8408.2689       8.1979186
       8409.2798       7.6135974
       8410.2908       7.9938916
       8411.3018       7.7839735
       8412.3127       7.8718518
       8413.3237       7.5450411
       8414.3347       7.9879850
       8415.3456       8.1971708
       8416.3566       8.4612229
       8417.3676       8.3333163
       8418.3785       8.0025453
       8419.3895       7.7738117
       8420.4005       7.9451543
       8421.4114       8.0611337
       8422.4224       7.9892819
       8423.4334       7.6852726
       8424.4443       7.9598492
       8425.4553       8.4592125
       8426.4663       8.1983922
       8427.4772       8.0281418
       8428.4882       8.0288511
       8429.4992       8.3367591
       8430.5101       8.1230653
       8431.5211       7.4024491
       8432.5321       7.7030083
       8433.5430       7.2125423
       8434.5540       6.4426097
       8435.5650       8.4087080
       8436.5759       10.533433
       8437.5869       9.9297381
       8438.5979       8.8043588
       8439.6088       9.4369668
       8440.6198       11.339565
       8441.6308       9.5641565
       8442.6418       7.0199327
       8443.6527       7.5360044
       8444.6637       7.6213679
       8445.6747       6.7121585
       8446.6856       8.4895255
       8447.6966       8.8069099
       8448.7076       8.3581118
       8449.7185       7.7884880
       8450.7295       8.8128340
       8451.7405       8.1765735
       8452.7514       6.8649808
       8453.7624       7.0229579
       8454.7734       6.7105968
       8455.7843       7.1419939
       8456.7953       6.7542891
       8457.8063       6.9086630
       8458.8172       7.1694017
       8459.8282       7.1249030
       8460.8392       6.2735755
       8461.8501       6.3809508
       8462.8611       7.1341204
       8463.8721       7.3285091
       8464.8830       7.0761054
       8465.8940       7.2509766
       8466.9050       7.3689826
       8467.9159       7.4640762
       8468.9269       6.9487807
       8469.9379       6.9139117
       8470.9488       6.9648420
       8471.9598       7.0849239
       8472.9708       7.1991108
       8473.9818       7.0016051
       8474.9927       6.9554044
       8476.0037       7.2073919
       8477.0147       7.6771333
       8478.0256       6.2575806
       8479.0366       6.4774763
       8480.0476       7.1982183
       8481.0585       7.1599063
       8482.0695       6.4321907
       8483.0805       6.3642587
       8484.0914       7.6071161
       8485.1024       7.3786451
       8486.1134       7.5975167
       8487.1243       7.4127464
       8488.1353       7.6295617
       8489.1463       7.2838174
       8490.1572       7.2316147
       8491.1682       7.2604436
       8492.1792       7.5191119
       8493.1901       6.5439477
       8494.2011       5.6677490
       8495.2121       8.4372416
       8496.2230       7.6051768
       8497.2340       7.5058375
       8498.2450       7.3771153
       8499.2559       8.1697357
       8500.2669       7.7378112
       8501.2779       6.2123827
       8502.2888       5.8623541
       8503.2998       6.7650172
       8504.3108       6.6761581
       8505.3217       6.5717112
       8506.3327       6.6664676
       8507.3437       6.7339940
       8508.3547       6.6047331
       8509.3656       6.8924227
       8510.3766       6.6013993
       8511.3876       6.7084337
       8512.3985       6.8120618
       8513.4095       7.2478307
       8514.4205       7.4253621
       8515.4314       6.7820832
